Timestamp_sec,Timestamp_nanosec,IMU_Accel_X,IMU_Accel_Y,IMU_Accel_Z,Landmark_X,Landmark_Y,Landmark_Z,Optimized_Pose_X,Optimized_Pose_Y,Optimized_Pose_Z
1787726988,240845561,-1.5145275227642038e-18,-0.003983381491066447,-9.77885448584954,0.0,0.0,0.0,-2.493314328245235,3.107388917321296,-9.186609280509538
1787726988,274493771,-1.5145275227642038e-18,-0.003983381491066447,-9.77885448584954,0.0,0.0,0.0,-2.4938640344295537,3.1065291885381243,-11.303696528316602
1787726988,298824408,-1.5145275227642038e-18,-0.003983381491066447,-9.77885448584954,0.0,0.0,0.0,-2.4933854058657356,3.1072780165905134,-9.538998805838267
1787726988,324398009,-1.5145275227642038e-18,-0.003983381491066447,-9.77885448584954,0.0,0.0,0.0,-5.8251058567854e-20,-0.00015320698042563258,-0.37610978791728994
1787726988,329529870,-1.5154215474997246e-18,-0.003983381512272611,-9.778854537908824,0.0,0.0,0.0,-1.1413799860662788e-19,-0.0003001960573467865,-0.736955164501215
1787726988,332033297,-1.5154215474997246e-18,-0.003983381512272611,-9.778854537908824,0.0,0.0,0.0,-1.6948559656648187e-19,-0.000445766602599,-1.0943181694355133
1787726988,350450833,-1.5154215474997246e-18,-0.003983381512272611,-9.778854537908824,0.0,0.0,0.0,-2.4934281222375465,3.1071541441480677,-9.891256292283723
1787726988,355838907,-1.5154215474997246e-18,-0.003983381512272611,-9.778854537908824,0.0,0.0,0.0,-2.4939578645284555,3.1063949059187914,-11.656079734441224
1787726988,369752615,-1.5154215474997246e-18,-0.003983381512272611,-9.778854537908824,0.0,0.0,0.0,-2.292858938364267e-19,-0.000603048258907636,-1.4804309316163162
1787726988,379505110,-1.5154215474997246e-18,-0.003983381512272611,-9.778854537908824,0.0,0.0,0.0,-2.872484776661371e-19,-0.0007554965176096356,-1.8546781238100232
1787726988,385432312,-1.5154215474997246e-18,-0.003983381512272611,-9.778854537908824,0.0,0.0,0.0,-3.4422689844106145e-19,-0.0009052694754766451,-2.2223576855545972
1787726988,389065897,-1.5154215474997246e-18,-0.003983381512272611,-9.778854537908824,0.0,0.0,0.0,-3.9999108128181217e-19,-0.0010518499593814988,-2.582200001884491
1787726988,394180857,-1.5154215474997246e-18,-0.003983381512272611,-9.778854537908824,0.0,0.0,0.0,-4.562018900025255e-19,-0.0011996046512085887,-2.944924896353945
1787726988,401768942,-1.5154215474997246e-18,-0.003983381512272611,-9.778854537908824,0.0,0.0,0.0,-5.122924121886028e-19,-0.001347043054571468,-3.3068733302021895
1787726988,183183729,-1.5154215474997246e-18,-0.003983381512272611,-9.778854537908824,0.0,0.0,0.0,-2.4783678125091226,3.1200689793169465,-1.6707300949834047
1787726988,242397840,-1.5154215474997246e-18,-0.003983381512272611,-9.778854537908824,0.0,0.0,0.0,-2.4784155253780957,3.1199580468406687,-2.0229847837767303
1787726988,262730073,-1.5154215474997246e-18,-0.003983381512272611,-9.778854537908824,0.0,0.0,0.0,-2.4784847885424797,3.1198617720053203,-2.375355727475547
1787726988,290089064,-1.5154215474997246e-18,-0.003983381512272611,-9.778854537908824,0.0,0.0,0.0,-2.478515941934073,3.1197395643114603,-2.7275508618499478
1787726988,324870333,-1.5154215474997246e-18,-0.003983381512272611,-9.778854537908824,0.0,0.0,0.0,-2.4785459023686274,3.1196165433367673,-3.0797441750093033
1787726988,406418279,-1.5154215474997246e-18,-0.003983381512272611,-9.778854537908824,0.0,0.0,0.0,-5.691299566512506e-19,-0.0014964453713410388,-3.6736430003467606
1787726988,463243568,-1.5154215474997246e-18,-0.003983381512272611,-9.778854537908824,0.0,0.0,0.0,-2.494021214011811,3.106257657543073,-12.008359446418108
1787726988,480032422,-1.5154215474997246e-18,-0.003983381512272611,-9.778854537908824,0.0,0.0,0.0,-2.49347089739764,3.1070302960977907,-10.243520180112633
1787726988,523004906,-1.5154215474997246e-18,-0.003983381512272611,-9.778854537908824,0.0,0.0,0.0,-2.4941055590914534,3.106122444103362,-12.36072991531892
1787726988,613675316,-1.5154215474997246e-18,-0.003983381512272611,-9.778854537908824,0.0,0.0,0.0,-2.478598946546662,3.119509221027061,-3.4320668403074097
1787726988,623525517,-1.5154215474997246e-18,-0.003983381512272611,-9.778854537908824,0.0,0.0,0.0,-2.4935715078445693,3.106932875816103,-10.596113757162472
1787726988,625462816,-1.5154215474997246e-18,-0.003983381512272611,-9.778854537908824,0.0,0.0,0.0,-2.4941558095600866,3.105983918429791,-12.712971943400229
1787726988,654926814,-1.5154215474997246e-18,-0.003983381512272611,-9.778854537908824,0.0,0.0,0.0,-2.478964582685194,3.119614357372693,-3.7864533175222346
1787726988,689526873,-1.5154215474997246e-18,-0.003983381512272611,-9.778854537908824,0.0,0.0,0.0,-2.493681754425469,3.1068398434302953,-10.948799885378612
1787726988,712266629,-1.5154215474997246e-18,-0.003983381512272611,-9.778854537908824,0.0,0.0,0.0,-2.479019428190968,3.119508216141101,-4.138893992071883
1787726988,733784323,-1.5154215474997246e-18,-0.003983381512272611,-9.778854537908824,0.0,0.0,0.0,-2.49423160193381,3.1058478677812973,-13.06532572697302
1787726988,766836303,-1.5154215474997246e-18,-0.003983381512272611,-9.778854537908824,0.0,0.0,0.0,-2.479108790850798,3.1194255122405417,-4.49161868506661
1787726988,793074537,-1.5154215474997246e-18,-0.003983381512272611,-9.778854537908824,0.0,0.0,0.0,-2.4937409041144334,3.1067234593703965,-11.301202119386689
1787726988,800357208,-1.5154215474997246e-18,-0.003983381512272611,-9.778854537908824,0.0,0.0,0.0,-2.479175848635546,3.119327648492193,-4.844195980298893
1787726988,839426194,-1.5154215474997246e-18,-0.003983381512272611,-9.778854537908824,0.0,0.0,0.0,-2.4943179785915093,3.1057128387348065,-13.41773569226884
1787726988,852515059,-1.5154215474997246e-18,-0.003983381512272611,-9.778854537908824,0.0,0.0,0.0,-2.493817077678323,3.1066148440827606,-11.653726604883971
1787726988,907051832,-1.5154215474997246e-18,-0.003983381512272611,-9.778854537908824,0.0,0.0,0.0,-2.493860358086414,3.1064912039880146,-12.006049632030221
1787726988,923333360,-1.5154215474997246e-18,-0.003983381512272611,-9.778854537908824,0.0,0.0,0.0,-2.494400599743754,3.1055774407642724,-13.770141533359347
1787726988,945145169,-1.5154215474997246e-18,-0.003983381512272611,-9.778854537908824,0.0,0.0,0.0,-2.4939017935327428,3.106366719108575,-12.358366392712195
1787726988,991875945,-1.5154215474997246e-18,-0.003983381512272611,-9.778854537908824,0.0,0.0,0.0,-2.494466817476047,3.1054404503396067,-14.122482853730268
1787726989,84641761,-1.5154215474997246e-18,-0.003983381512272611,-9.778854537908824,0.0,0.0,0.0,-2.4945192473143893,3.1053021228066275,-14.47476643328992
1787726990,20739451,-1.5228541036901957e-18,-0.003983381512272611,-9.778854537908824,0.0,0.0,0.0,-6.095703269971905e-19,-0.0016019199487713692,-3.9325738978670817
1787726990,28215130,-1.5228541036901957e-18,-0.003983381512272611,-9.778854537908824,0.0,0.0,0.0,-6.647298991019027e-19,-0.0017462031851310173,-4.286776671634224
1787726990,31770911,-1.5228541036901957e-18,-0.003983381512272611,-9.778854537908824,0.0,0.0,0.0,-7.197650937562403e-19,-0.0018901609110958952,-4.640180345744147
1787726990,34347042,-1.5228541036901957e-18,-0.003983381512272611,-9.778854537908824,0.0,0.0,0.0,-7.74695460679681e-19,-0.0020338442935028266,-4.992910530323051
1787726990,36716562,-1.5228541036901957e-18,-0.003983381512272611,-9.778854537908824,0.0,0.0,0.0,-8.2957962892628305e-19,-0.0021774067701141866,-5.345343901708429
1787726990,48353954,-1.5228541036901957e-18,-0.003983381512272611,-9.778854537908824,0.0,0.0,0.0,-2.479775268060036,3.119590802463626,-5.2022796982447534
1787726990,66783490,-1.5228541036901957e-18,-0.003983381512272611,-9.778854537908824,0.0,0.0,0.0,-2.4798206490598065,3.1194781573656836,-5.554832546447027
1787726990,67685336,-1.5228541036901957e-18,-0.003983381512272611,-9.778854537908824,0.0,0.0,0.0,-2.494277666785248,3.106394787621226,-12.713246505105996
1787726990,89328236,-1.5228541036901957e-18,-0.003983381512272611,-9.778854537908824,0.0,0.0,0.0,-2.4798465835039134,3.119352330892483,-5.9071690678471
1787726990,108849928,-1.5228541036901957e-18,-0.003983381512272611,-9.778854537908824,0.0,0.0,0.0,-2.494900786318122,3.105195578561938,-14.828754080406815
1787726990,110551714,-1.5228541036901957e-18,-0.003983381512272611,-9.778854537908824,0.0,0.0,0.0,-2.479874426885914,3.119227796605105,-6.259531099450506
1787726990,134098610,-1.5228541036901957e-18,-0.003983381512272611,-9.778854537908824,0.0,0.0,0.0,-2.479902568242002,3.11910346270906,-6.611900332295506
1787726990,136820149,-1.5228541036901957e-18,-0.003983381512272611,-9.778854537908824,0.0,0.0,0.0,-2.494320437385832,3.1062708870553872,-13.06563417335277
1787726990,186305963,-1.5228541036901957e-18,-0.003983381512272611,-9.778854537908824,0.0,0.0,0.0,-2.494374092784002,3.106151945724593,-13.418119635828953
1787726990,185563425,-1.5228541036901957e-18,-0.003983381512272611,-9.778854537908824,0.0,0.0,0.0,-2.494979679112399,3.105059786692073,-15.181223686136164
1787726990,251649983,-1.5228541036901957e-18,-0.003983381512272611,-9.778854537908824,0.0,0.0,0.0,-2.49441225214234,3.106025937764854,-13.77048173458179
1787726990,280873668,-1.5228541036901957e-18,-0.003983381512272611,-9.778854537908824,0.0,0.0,0.0,-2.495037339270099,3.104921944077413,-15.533583919272331
1787726990,304170852,-1.5228541036901957e-18,-0.003983381512272611,-9.778854537908824,0.0,0.0,0.0,-2.4944628138918623,3.105905579846756,-14.122956799015288
1787726990,372760337,-1.5228541036901957e-18,-0.003983381512272611,-9.778854537908824,0.0,0.0,0.0,-2.49511068179435,3.1047856099386895,-15.88604015145105
1787726990,445856051,-1.5228541036901957e-18,-0.003983381512272611,-9.778854537908824,0.0,0.0,0.0,-2.495179142497917,3.10464880196564,-16.23847694634587
1787727000,568244293,-1.5405841613956459e-18,-0.003983381830360467,-9.778855318786794,0.0,0.0,0.0,-8.90580364632763e-19,-0.002336129626285631,-5.734994683979712
1787727000,587610677,-1.5996862337423105e-18,-0.003983382848146467,-9.778857817362745,0.0,0.0,0.0,-9.461604455394051e-19,-0.0024807660339218086,-6.090064462458682
1787727000,602095713,-1.5996862337423105e-18,-0.003983382848146467,-9.778857817362745,0.0,0.0,0.0,-1.0017937783982707e-18,-0.0026255412112364306,-6.445474908407138
1787727000,620329240,-1.6410581655366465e-18,-0.0039833836113883515,-9.77885969105507,0.0,0.0,0.0,-1.0573818895193652e-18,-0.002770198486016418,-6.800595913905995
1787727000,622511851,-1.6410581655366465e-18,-0.0039833836113883515,-9.77885969105507,0.0,0.0,0.0,-1.1129357236435816e-18,-0.002914766393182887,-7.155497529700324
1787727000,625598108,-1.6410581655366465e-18,-0.0039833836113883515,-9.77885969105507,0.0,0.0,0.0,-1.1684829016729232e-18,-0.003058391962507619,-7.508085788199721
1787727000,628358148,-1.6646993351880384e-18,-0.0039833840565735,-9.778860783945818,0.0,0.0,0.0,-1.224021877950202e-18,-0.003201996220800478,-7.860621729972714
1787727000,651604329,-1.7178920897167906e-18,-0.003983385074029945,-9.77886328171274,0.0,0.0,0.0,-1.5596911085903658e-18,-0.0040642321609451896,-9.977335835828402
1787727000,657899649,-1.7473165172953046e-18,-0.003983385646281838,-9.778864686541276,0.0,0.0,0.0,-1.6162608687856518e-18,-0.004208114957623466,-10.330555565068357
1787727000,660533783,-1.7473165172953046e-18,-0.003983385646281838,-9.778864686541276,0.0,0.0,0.0,-1.6718020075874314e-18,-0.004351724789888438,-10.683105190457225
1787727000,664080663,-1.7473165172953046e-18,-0.003983385646281838,-9.778864686541276,0.0,0.0,0.0,-1.7277821885688721e-18,-0.004495368785171482,-11.03573868307881
1787727000,693116939,-1.847791660045563e-18,-0.003983387616998273,-9.778869524478417,0.0,0.0,0.0,-2.1815267575329375e-18,-0.005644914497093827,-13.8577732451542
1787727000,697868680,-1.847791660045563e-18,-0.003983387616998273,-9.778869524478417,0.0,0.0,0.0,-2.2392322572574017e-18,-0.005788613778839676,-14.210542461224826
1787727000,700978238,-1.812329845913661e-18,-0.003983386917778202,-9.778867807954063,0.0,0.0,0.0,-2.2969601548892273e-18,-0.0059323700794626216,-14.563451653670633
1787727000,708243808,-1.9246254225003406e-18,-0.003983389142314962,-9.778873268997984,0.0,0.0,0.0,-2.411717543784008e-18,-0.006219731463340972,-15.268898813100604
1787727000,711135054,-1.9246254225003406e-18,-0.003983389142314962,-9.778873268997984,0.0,0.0,0.0,-2.4693943260644154e-18,-0.006363357549506097,-15.62148834039813
1787727000,716487826,-1.9246254225003406e-18,-0.003983389142314962,-9.778873268997984,0.0,0.0,0.0,-2.527125792416172e-18,-0.006507122855900732,-15.974419641228755
1787727000,721608387,-1.9246254225003406e-18,-0.003983389142314962,-9.778873268997984,0.0,0.0,0.0,-2.58559154113896e-18,-0.006650949220718603,-16.32750083516836
1787727000,749251091,-1.9246254225003406e-18,-0.003983389142314962,-9.778873268997984,0.0,0.0,0.0,-2.881306707121964e-18,-0.007370370611365522,-18.09361766553508
1787727000,752083635,-2.101933343512979e-18,-0.003983392700025696,-9.77888200286785,0.0,0.0,0.0,-2.9413181884802823e-18,-0.007513977544281824,-18.446160173275587
1787727000,754879877,-2.101933343512979e-18,-0.003983392700025696,-9.77888200286785,0.0,0.0,0.0,-3.001341821185823e-18,-0.007657614735102267,-18.798776961534365
1787727000,759646720,-2.101933343512979e-18,-0.003983392700025696,-9.77888200286785,0.0,0.0,0.0,-3.061379938411626e-18,-0.007801287986773631,-19.15148227604015
1787727000,760833080,-2.101933343512979e-18,-0.003983392700025696,-9.77888200286785,0.0,0.0,0.0,-2.480695607710652,3.119209705390686,-7.679525799583158
1787727000,773526925,-2.2021954393604937e-18,-0.003983394732144863,-9.778886991543347,0.0,0.0,0.0,-3.3722769482308038e-18,-0.008519645490191319,-20.914987355956317
1787727000,776532578,-2.2553872955885433e-18,-0.003983395811453752,-9.778889641152627,0.0,0.0,0.0,-3.435262060259584e-18,-0.008663245686056949,-21.267513324824424
1787727000,782053058,-2.310549105354799e-18,-0.003983396932901253,-9.77889239420853,0.0,0.0,0.0,-3.563549454549113e-18,-0.008950556646689065,-21.972836699578302
1787727000,784824899,-2.2553872955885433e-18,-0.003983395811453752,-9.778889641152627,0.0,0.0,0.0,-3.6276820806683945e-18,-0.009094185479523152,-22.325432969708814
1787727000,795051019,-2.3676808315823808e-18,-0.003983398096465643,-9.778895250657724,0.0,0.0,0.0,-3.821358504451249e-18,-0.009525243478544844,-23.38364279893259
1787727000,801409442,-2.4267824367851607e-18,-0.0039833993021243744,-9.778898210444858,0.0,0.0,0.0,-3.9521069491458395e-18,-0.009812666810180665,-24.089242034709606
1787727000,803118429,-2.487853913759255e-18,-0.003983400549854078,-9.778901273512565,0.0,0.0,0.0,-2.480717172036782,3.1190808774165495,-8.031910240716826
1787727000,804099579,-2.550725738868017e-18,-0.003983401839630563,-9.778904439801456,0.0,0.0,0.0,-4.020070860806422e-18,-0.009956291685798847,-24.441828590219867
1787727000,812739718,-2.550725738868017e-18,-0.003983401839630563,-9.778904439801456,0.0,0.0,0.0,-4.088096604509131e-18,-0.010100060152345998,-24.794767648949566
1787727000,815875277,-2.550725738868017e-18,-0.003983401839630563,-9.778904439801456,0.0,0.0,0.0,-4.154884328424129e-18,-0.010244089547538571,-25.148347264768894
1787727000,819184545,-2.550725738868017e-18,-0.003983401839630563,-9.778904439801456,0.0,0.0,0.0,-4.2243075903323715e-18,-0.010387805519994539,-25.50115745507859
1787727000,821183647,-2.550725738868017e-18,-0.003983401839630563,-9.778904439801456,0.0,0.0,0.0,-2.4948325242726943,3.105930534491136,-14.478532732965888
1787727000,824598320,-2.8955641567714263e-18,-0.003983408918310669,-9.778921817344346,0.0,0.0,0.0,-4.293735424748957e-18,-0.010531531894442546,-25.853993181372406
1787727000,830007695,-2.8955641567714263e-18,-0.003983408918310669,-9.778921817344346,0.0,0.0,0.0,-4.363202778299599e-18,-0.010675348777236783,-26.20705109777017
1787727000,833592377,-3.2066526899977185e-18,-0.00398341533532739,-9.778937570561274,0.0,0.0,0.0,-4.434214973762029e-18,-0.010819286128955786,-26.56040475488169
1787727000,852367832,-3.2066526899977185e-18,-0.00398341533532739,-9.778937570561274,0.0,0.0,0.0,-4.508538593568671e-18,-0.010963474144817293,-26.91437377062252
1787727000,859520495,-3.4606500540816383e-18,-0.003983420586675366,-9.778950462163001,0.0,0.0,0.0,-4.5832060098079074e-18,-0.01110841611768581,-27.27019368512278
1787727000,882202648,-3.4606500540816383e-18,-0.003983420586675366,-9.778950462163001,0.0,0.0,0.0,-4.665324982841299e-18,-0.011253737626981038,-27.626945328481355
1787727000,883596419,-3.732330809843806e-18,-0.003983426212941022,-9.778964274154967,0.0,0.0,0.0,-2.480795901496337,3.1189906722324228,-8.385237968152493
1787727000,928919722,-3.826844103615604e-18,-0.003983428171510084,-9.778969082271363,0.0,0.0,0.0,-2.495557039544917,3.1045417235338015,-16.592893683847453
1787727000,940636217,-3.732330809843806e-18,-0.003983426212941022,-9.778964274154967,0.0,0.0,0.0,-2.480868791661381,3.1188965103200763,-8.738497557484054
1787727000,998056335,-4.021863621899584e-18,-0.0039834322131423305,-9.778979004126375,0.0,0.0,0.0,-2.4809395251014434,3.1188008809253205,-9.091746899562528
1787727001,47948671,-4.021863621899584e-18,-0.0039834322131423305,-9.778979004126375,-2.5037648677825928,3.009472131729126,0.004529479891061783,-2.4810139585927846,3.1187077389853797,-9.445087813386033
1787727001,69472564,-4.12215789214462e-18,-0.003983434296127172,-9.778984117672671,-2.423370122909546,2.9981882572174072,0.007336124777793884,-2.4950520740291973,3.1058870231612334,-14.832885049478557
1787727001,145224514,-4.766209932177771e-18,-0.003983447661805474,-9.779016929248339,-2.423370122909546,2.9981882572174072,0.007336124777793884,-4.749105871853546e-18,-0.011398369134293169,-27.982003077091754
1787727001,162369285,-4.996548203185909e-18,-0.003983452446570455,-9.779028675429467,-0.20247319340705872,3.5419857501983643,-0.02471579611301422,-2.0512683997138677,2.4634923822464376,-5.1236609376923
1787727001,172392895,-5.356886643968256e-18,-0.003983459931404341,-9.779047050044499,-2.369314432144165,3.2242186069488525,0.005191020667552948,-2.4949222007293956,3.052003345299072,-3.815773218553181
1787727001,193546270,-5.356886643968256e-18,-0.003983459931404341,-9.779047050044499,-2.369314432144165,3.2242186069488525,0.005191020667552948,-2.4958414350486144,3.1044255902281543,-16.946887866960164
1787727001,198177605,-5.7349027565446135e-18,-0.003983467784300063,-9.77906632821927,-2.369314432144165,3.2242186069488525,0.005191020667552948,-2.051671577774597,2.4638326935933104,-5.477904403081655
1787727001,249254000,-6.2665432233578436e-18,-0.003983478825001051,-9.77909343217821,-2.369314432144165,3.2242186069488525,0.005191020667552948,-2.2311009712423227,2.7216851005374556,-3.0141205320767264
1787727001,280823205,-6.829596345546283e-18,-0.003983490514195529,-9.779122128132164,-2.6348092555999756,3.124846935272217,0.0035413801670074463,-2.231415445879619,2.7219254665288264,-3.3671549679342347
1787727001,300988329,-6.975344304675683e-18,-0.003983493537403628,-9.779129549844631,-2.5096137523651123,2.968567371368408,0.0029578953981399536,-1.474474798427487,3.0280742271475853,-2.3412232794116425
1787727001,309228048,-7.122891126300332e-18,-0.003983496600860383,-9.779137070364044,-2.5096137523651123,2.968567371368408,0.0029578953981399536,-1.474621091341169,3.02826071529697,-2.693892629581815
1787727001,311437760,-7.272575735861436e-18,-0.00398349970450692,-9.779144689545872,-2.5096137523651123,2.968567371368408,0.0029578953981399536,-2.495084078073776,3.051958527011652,-4.168995789590989
1787727001,338563939,-7.424143871233996e-18,-0.0039835028482836194,-9.779152407243748,-2.5096137523651123,2.968567371368408,0.0029578953981399536,-1.7671508012657529,3.0922556801309606,-2.0484211501614036
1787727001,356048127,-8.109478998285535e-18,-0.0039835158234737145,-9.77918426020489,-2.5096137523651123,2.968567371368408,0.0029578953981399536,-1.767349527603927,3.0924870723707674,-2.401029872228924
1787727001,368369154,-8.274614474834808e-18,-0.003983519166981039,-9.779192468224048,-2.5096137523651123,2.968567371368408,0.0029578953981399536,-2.5012725653747165,3.0376090314503674,-4.43168577178149
1787727001,380780484,-8.442370216210279e-18,-0.00398352255024531,-9.77920077384305,-2.5096137523651123,2.968567371368408,0.0029578953981399536,-2.032326435737917,3.102430574154507,-1.911584662119621
1787727001,490979884,-1.2200695038957843e-17,-0.003983594295675939,-9.779376902624003,-2.5096137523651123,2.968567371368408,0.0029578953981399536,-2.501713554324872,3.034683535681021,-4.596155316373709
1787727001,529825758,-1.2425694433192621e-17,-0.00398359845953265,-9.77938712452943,-2.5096137523651123,2.968567371368408,0.0029578953981399536,-2.0325224810686384,3.1026054576565083,-2.2640760344466466
1787727001,541169635,-1.2653922441328576e-17,-0.0039836026616379356,-9.779397440331772,-2.5096137523651123,2.968567371368408,0.0029578953981399536,-2.174137496775063,3.064283840722201,-1.8463862533366362
1787727001,563748582,-1.3846750606896335e-17,-0.003983624243091607,-9.779450420920124,-2.5096137523651123,2.968567371368408,0.0029578953981399536,-2.1741733435375044,3.0641904583884063,-2.1985554194609076
1787727001,578745344,-1.4603760246942007e-17,-0.00398363764576507,-9.77948332331569,-2.5096137523651123,2.968567371368408,0.0029578953981399536,-2.174387402761653,3.0643457628641793,-2.5513361450969296
1787727001,587855007,-1.4862990051482046e-17,-0.003983642188456599,-9.779494475227589,-2.5096137523651123,2.968567371368408,0.0029578953981399536,-2.5014935199025428,3.0375605303459117,-4.7845471588270785
1787727001,602617558,-1.4862990051482046e-17,-0.003983642188456599,-9.779494475227589,-2.5096137523651123,2.968567371368408,0.0029578953981399536,-2.174526344026866,3.0643962252643737,-2.9039048111359307
1787727001,606371348,-1.4862990051482046e-17,-0.003983642188456599,-9.779494475227589,-2.5096137523651123,2.968567371368408,0.0029578953981399536,-2.1747189921637653,3.0645216057755342,-3.2567245834553193
1787727001,647033415,-1.6210643079935573e-17,-0.003983665461567519,-9.779551608687092,-2.5096137523651123,2.968567371368408,0.0029578953981399536,-2.174748301641616,3.064419087544239,-3.6089042984846245
1787727001,650400486,-1.6490465184447094e-17,-0.003983670227510517,-9.77956330866189,-2.5096137523651123,2.968567371368408,0.0029578953981399536,-2.1750974233613176,3.064762708775419,-3.9625324037763856
1787727001,675399156,-1.7060510076628553e-17,-0.003983679870009177,-9.77958698015594,-2.4236361980438232,2.9421918392181396,0.005494691431522369,-2.501957767524726,3.0345600665441337,-4.948736776864466
1787727001,682693327,-1.7060510076628553e-17,-0.003983679870009177,-9.77958698015594,-2.4236361980438232,2.9421918392181396,0.005494691431522369,-2.175126679786094,3.0646601084186775,-4.314731803044026
1787727001,695578582,-1.8545623709510047e-17,-0.003983704617272662,-9.779647732531549,-2.4236361980438232,2.9421918392181396,0.005494691431522369,-2.281509112534146,3.0125320879477955,-2.671499655160903
1787727001,725139284,-1.8545623709510047e-17,-0.003983704617272662,-9.779647732531549,-2.4236361980438232,2.9421918392181396,0.005494691431522369,-2.4663700016498677,3.0197734950593422,-2.818269574442835
1787727001,776858212,-1.9795520096333868e-17,-0.003983725068322735,-9.77969793807756,-2.4676506519317627,2.9566240310668945,0.001819603145122528,-2.4650881008974683,3.029370404452016,-2.6213761455306184
1787727001,804747929,-2.076923594850216e-17,-0.003983740783702985,-9.779736517966779,-2.3532874584198,3.1804380416870117,0.003770269453525543,-2.466473176974683,3.0196742753647867,-3.170615410934966
1787727001,869882839,-2.246038056156653e-17,-0.003983767686529923,-9.779802562062844,-0.23086807131767273,3.5061793327331543,-0.022432276979088783,-2.465615730333239,3.02954600841615,-2.976914523989018
1787727001,884554585,-2.2808952625248548e-17,-0.003983773172786504,-9.77981603034473,-2.647991418838501,3.0771448612213135,0.0020607896149158478,-2.2817471162030536,3.012694756953939,-3.024300661686275
1787727001,903468146,-2.429390616535689e-17,-0.0039837954667692015,-9.779870760129757,-2.647991418838501,3.0771448612213135,0.0020607896149158478,-2.3479053157959933,2.9940759811420614,-2.194655357425919
1787727001,906035477,-2.392942314586624e-17,-0.003983789841133359,-9.77985694968393,-2.647991418838501,3.0771448612213135,0.0020607896149158478,-2.348076985328196,2.9941393708599473,-2.5473374441651977
1787727001,923577468,-2.541243258576854e-17,-0.003983812550799552,-9.779912699935721,-2.647991418838501,3.0771448612213135,0.0020607896149158478,-1.6506891217158404,3.207811777366421,-2.2623194557502773
1787727001,927662276,-2.541243258576854e-17,-0.003983812550799552,-9.779912699935721,-2.647991418838501,3.0771448612213135,0.0020607896149158478,-2.3497438990932578,3.053075648932475,-1.9798177747049073
1787727001,946497233,-2.6178949356437307e-17,-0.003983824111716674,-9.779941080979942,-2.647991418838501,3.0771448612213135,0.0020607896149158478,-2.350086844012301,3.0533578604804097,-2.332845244280928
1787727001,951260775,-2.6568634937312887e-17,-0.003983829943329961,-9.779955397082448,-2.647991418838501,3.0771448612213135,0.0020607896149158478,-1.7134410581526094,3.1893289314252584,-1.8851117196021066
1787727001,969591906,-2.6568634937312887e-17,-0.003983829943329961,-9.779955397082448,-2.647991418838501,3.0771448612213135,0.0020607896149158478,-1.7135270588124658,3.189363366675563,-2.2374875665075424
1787727001,987236603,-2.6568634937312887e-17,-0.003983829943329961,-9.779955397082448,-2.647991418838501,3.0771448612213135,0.0020607896149158478,-1.9867701811153544,3.1566406073251634,-1.832339404778956
1787727002,2152961,-2.8635006160084433e-17,-0.003983859608696886,-9.78002822297348,-2.647991418838501,3.0771448612213135,0.0020607896149158478,-1.678931737897813,3.2076473397622283,-2.1809411495071434
1787727002,6884201,-2.90524534169733e-17,-0.0039838656424793775,-9.780043035383768,-2.647991418838501,3.0771448612213135,0.0020607896149158478,-1.9869250630808684,3.1567573707393866,-2.1848127171300673
1787727002,17122122,-3.033432424651901e-17,-0.0039838839432920665,-9.780087962284352,-2.647991418838501,3.0771448612213135,0.0020607896149158478,-1.9869929685308911,3.156728017721007,-2.5370822956489048
1787727002,29164934,-2.9902112674287445e-17,-0.003983877809886425,-9.780072905307911,-2.647991418838501,3.0771448612213135,0.0020607896149158478,-1.6789316262572571,3.207622971640211,-2.5338664632365515
1787727002,88694359,-3.303058919270946e-17,-0.003983921432586241,-9.780179995235075,-2.390845537185669,2.9663803577423096,-0.0003264322876930237,-1.8965505428225233,3.212774674932744,-1.9747565749413512
1787727002,113599524,-3.349701759757527e-17,-0.003983927794568818,-9.780195613347976,-2.390845537185669,2.9663803577423096,-0.0003264322876930237,-1.896569624867325,3.2126971011349217,-2.3272002424107887
1787727002,137635546,-3.444488692801266e-17,-0.003983940615032449,-9.780227086469132,-2.390845537185669,2.9663803577423096,-0.0003264322876930237,-1.9870833185910843,3.1567363591294146,-2.889432573918999
1787727002,138871609,-3.4926200352869447e-17,-0.003983947073285532,-9.780242940917736,-2.390845537185669,2.9663803577423096,-0.0003264322876930237,-2.1177643998396034,3.1862904750709684,-1.8755466592102703
1787727002,142286682,-3.4926200352869447e-17,-0.003983947073285532,-9.780242940917736,-2.390845537185669,2.9663803577423096,-0.0003264322876930237,-2.125358786112368,3.092535702358729,-2.137640489761913
1787727002,155697364,-3.4926200352869447e-17,-0.003983947073285532,-9.780242940917736,-2.390845537185669,2.9663803577423096,-0.0003264322876930237,-2.12538964839021,3.09243775544706,-2.4898162725559354
1787727002,158695616,-3.4926200352869447e-17,-0.003983947073285532,-9.780242940917736,-2.390845537185669,2.9663803577423096,-0.0003264322876930237,-2.1254994755871097,3.0924561499751837,-2.842245159919997
1787727002,155321445,-3.541220665679687e-17,-0.003983953563400095,-9.7802588735835,-2.390845537185669,2.9663803577423096,-0.0003264322876930237,-2.1177761767552417,3.1861684700741284,-2.227722912238523
1787727002,173671177,-3.639931394217112e-17,-0.003983966638753034,-9.780290972435697,-2.390845537185669,2.9663803577423096,-0.0003264322876930237,-2.1256113992222647,3.092477622963722,-3.194706019256105
1787727002,181546477,-3.639931394217112e-17,-0.003983966638753034,-9.780290972435697,-2.390845537185669,2.9663803577423096,-0.0003264322876930237,-2.125639925085805,3.0923762271869295,-3.5468904031693667
1787727002,192708345,-3.690003308311821e-17,-0.003983973223760046,-9.780307138054155,-2.390845537185669,2.9663803577423096,-0.0003264322876930237,-2.2321452708758422,3.1225722962721933,-1.826067462910678
1787727002,187372373,-3.690003308311821e-17,-0.003983973223760046,-9.780307138054155,-2.390845537185669,2.9663803577423096,-0.0003264322876930237,-2.1257224158959276,3.092354329341629,-3.8992729993507527
1787727002,199381384,-3.7405867925776536e-17,-0.003983979840165826,-9.78032338075385,-2.390845537185669,2.9663803577423096,-0.0003264322876930237,-2.125814914804682,3.092347168635707,-4.251707558150948
1787727002,214767266,-3.791656399368439e-17,-0.003983986487853663,-9.780339700248271,-2.390845537185669,2.9663803577423096,-0.0003264322876930237,-2.1258848109295534,3.0923067071171118,-4.604068287058052
1787727002,217739617,-3.843203630424598e-17,-0.003983993166706448,-9.780356096249923,-2.390845537185669,2.9663803577423096,-0.0003264322876930237,-2.125958813381699,3.09227228988372,-4.956456153341862
1787727002,227177196,-3.843203630424598e-17,-0.003983993166706448,-9.780356096249923,-2.390845537185669,2.9663803577423096,-0.0003264322876930237,-2.232167359534509,3.1224608666556617,-2.178267292435352
1787727002,319116068,-3.843203630424598e-17,-0.003983993166706448,-9.780356096249923,-2.4140384197235107,2.9243056774139404,0.00456622987985611,-2.1259863277695796,3.0921693955011813,-5.308657836921476
1787727002,329991321,-3.843203630424598e-17,-0.003983993166706448,-9.780356096249923,-2.4140384197235107,2.9243056774139404,0.00456622987985611,-2.218627944643925,3.1249652182983025,-2.972950525746534
1787727002,341457304,-3.843203630424598e-17,-0.003983993166706448,-9.780356096249923,-2.4140384197235107,2.9243056774139404,0.00456622987985611,-2.2187136246800034,3.124943708736243,-3.3252910897765795
1787727002,349143294,-3.843203630424598e-17,-0.003983993166706448,-9.780356096249923,-2.4140384197235107,2.9243056774139404,0.00456622987985611,-2.291063694438467,3.050680883227173,-2.314858925994578
1787727002,358995495,-3.843203630424598e-17,-0.003983993166706448,-9.780356096249923,-2.4140384197235107,2.9243056774139404,0.00456622987985611,-2.2911774687212403,3.0506908771317005,-2.6671798268402696
1787727002,375859852,-3.843203630424598e-17,-0.003983993166706448,-9.780356096249923,-2.4140384197235107,2.9243056774139404,0.00456622987985611,-2.2912309713900627,3.05061959651987,-3.0193846473883204
1787727002,392034474,-3.843203630424598e-17,-0.003983993166706448,-9.780356096249923,-2.4140384197235107,2.9243056774139404,0.00456622987985611,-2.2913537361316094,3.050641698717076,-3.3717598815172045
1787727002,400058382,-3.843203630424598e-17,-0.003983993166706448,-9.780356096249923,-2.4140384197235107,2.9243056774139404,0.00456622987985611,-2.291489453970731,3.0506812533800614,-3.7241954358343143
1787727002,411882183,-3.843203630424598e-17,-0.003983993166706448,-9.780356096249923,-2.4140384197235107,2.9243056774139404,0.00456622987985611,-2.291561748176638,3.0506352942327033,-4.076481559708247
1787727002,425232661,-3.843203630424598e-17,-0.003983993166706448,-9.780356096249923,-2.64162540435791,3.0718493461608887,1.8015503883361816e-05,-2.2916597315354554,3.05062396182397,-4.4288523533901145
1787727002,553045156,-3.843203630424598e-17,-0.003983993166706448,-9.780356096249923,-2.3236005306243896,2.999528646469116,-0.0021649040281772614,-2.291759944301617,3.050615627933255,-4.781246522516158
1787727002,567056668,-3.843203630424598e-17,-0.003983993166706448,-9.780356096249923,-2.3236005306243896,2.999528646469116,-0.0021649040281772614,-2.4500725855875642,3.0608747862092045,-2.821209529943529
1787727002,577609204,-3.843203630424598e-17,-0.003983993166706448,-9.780356096249923,-2.3236005306243896,2.999528646469116,-0.0021649040281772614,-2.4501584301413417,3.06083916503695,-3.173522972785435
1787727002,574836263,-3.843203630424598e-17,-0.003983993166706448,-9.780356096249923,-2.3236005306243896,2.999528646469116,-0.0021649040281772614,-2.2873171756230155,3.070473560319344,-1.800243642477958
1787727002,591571014,-3.843203630424598e-17,-0.003983993166706448,-9.780356096249923,-2.3236005306243896,2.999528646469116,-0.0021649040281772614,-1.6645677193390513,3.213045861911165,-2.262335691268795
1787727002,611996152,-3.843203630424598e-17,-0.003983993166706448,-9.780356096249923,-2.3236005306243896,2.999528646469116,-0.0021649040281772614,-1.6646613226738187,3.2130822466156985,-2.6146854084039
1787727002,647398851,-3.895253884618522e-17,-0.003983999876606671,-9.780372568470334,-2.2556262016296387,3.1567533016204834,-6.442517042160034e-05,-1.876317386054997,3.144541954053545,-2.0150347480199784
1787727002,665849689,-4.1691398100691036e-17,-0.003984033887679155,-9.780456062689863,-2.592968463897705,3.075214147567749,-0.00147257000207901,-1.8766410893864176,3.1449446109845463,-2.3679054208958865
1787727002,680305523,-4.1691398100691036e-17,-0.003984033887679155,-9.780456062689863,-2.592968463897705,3.075214147567749,-0.00147257000207901,-2.287548967543588,3.070632771068524,-2.1536834100955455
1787727002,696423842,-4.2805625476661885e-17,-0.003984047705283926,-9.780489983705635,-2.592968463897705,3.075214147567749,-0.00147257000207901,-1.9914019076239136,3.1485833416078375,-1.8973731165644399
1787727002,730122755,-4.5160902422990715e-17,-0.003984075700645839,-9.78055870987987,-2.592968463897705,3.075214147567749,-0.00147257000207901,-1.9914874899308774,3.148575361297194,-2.249650325361547
1787727002,755074723,-4.6350757758199933e-17,-0.003984089876459967,-9.7805935102684,-2.592968463897705,3.075214147567749,-0.00147257000207901,-2.1681341370350915,3.1272424481287677,-1.8393488485722815
1787727002,889821870,-5.544630514926287e-17,-0.003984192340253775,-9.78084504995443,-2.4025585651397705,2.897409439086914,0.0020376816391944885,-1.699174192316357,3.1952132246490406,-1.7957234426709237
1787727003,66518050,-6.752141352515814e-17,-0.003984316047153456,-9.78114873961444,-0.2840060293674469,3.4650580883026123,-0.017963603138923645,-1.699167762019026,3.1952682620574566,-2.148805422591142
1787727003,175357381,-8.463522743626575e-17,-0.003984471398086291,-9.781530112618654,-2.623263120651245,3.050079584121704,-0.002253510057926178,-2.168316966607477,3.1273606985549227,-2.1918150345493763
1787727003,217701232,-8.66184782374682e-17,-0.0039844882502442424,-9.781571483198077,-2.623263120651245,3.050079584121704,-0.002253510057926178,-2.1983694666487916,3.092027623644343,-1.81710518364524
1787727003,214339162,-8.767663529987995e-17,-0.003984496710526916,-9.781592252454885,-2.623263120651245,3.050079584121704,-0.002253510057926178,-1.8762674182813988,3.185281622048706,-1.7878836913924814
1787727003,220416670,-8.767663529987995e-17,-0.003984496710526916,-9.781592252454885,-2.623263120651245,3.050079584121704,-0.002253510057926178,-1.6507459815268093,3.207714348367364,-2.6145838251247735
1787727003,233279024,-8.869306791820195e-17,-0.0039845051934328645,-9.781613077249864,-2.2306840419769287,3.0156562328338623,-0.004091111943125725,-2.19870127039124,3.092318109240236,-2.171252823663114
1787727003,272979641,-9.506470273743692e-17,-0.0039845565584158,-9.78173917380748,-2.2306840419769287,3.0156562328338623,-0.004091111943125725,-2.25731836324062,3.0363674025611394,-1.798858736895551
1787727003,296387031,-9.506470273743692e-17,-0.0039845565584158,-9.78173917380748,-2.2306840419769287,3.0156562328338623,-0.004091111943125725,-2.25749838150936,3.0364302911688124,-2.151817883937017
1787727003,353778247,-1.0297984196172124e-16,-0.003984617468575553,-9.781888702942497,-2.2306840419769287,3.0156562328338623,-0.004091111943125725,-1.6938866942673254,3.1588843857268913,-1.7943604020721893
1787727003,370295587,-1.041477353350682e-16,-0.00398462625403629,-9.78191027048312,-2.2306840419769287,3.0156562328338623,-0.004091111943125725,-1.8763003682736434,3.1852922154411956,-2.140872403539997
1787727003,379555957,-1.0532704548592613e-16,-0.0039846350600924955,-9.781931888583824,-2.2306840419769287,3.0156562328338623,-0.004091111943125725,-1.6940545957111097,3.1592290134989063,-2.148034336700907
1787727003,409508880,-1.1021811347768003e-16,-0.003984670487555898,-9.782018859919635,-2.2306840419769287,3.0156562328338623,-0.004091111943125725,-1.8553159522192735,3.1472495798595808,-1.788824100946998
1787727003,417934408,-1.1021811347768003e-16,-0.003984670487555898,-9.782018859919635,-2.2306840419769287,3.0156562328338623,-0.004091111943125725,-1.2075445264179672,3.2962239773460316,-2.021074106500881
1787727003,414626240,-1.1654251742816828e-16,-0.0039847152189777905,-9.782128671662877,-2.2306840419769287,3.0156562328338623,-0.004091111943125725,-1.8554348848676392,3.147361092335836,-2.1416855522077967
1787727003,469894148,-1.2465231440251691e-16,-0.003984769529973663,-9.782262000425558,-2.2306840419769287,3.0156562328338623,-0.004091111943125725,-2.0740100350004615,3.1197778991236436,-1.7854931671302494
1787727003,513674073,-1.3169693167759598e-16,-0.003984815296916608,-9.782374354282751,-2.2306840419769287,3.0156562328338623,-0.004091111943125725,-1.2075939047661775,3.2961582083520002,-2.373590495897246
1787727003,591491528,-1.422578834980503e-16,-0.0039848801118683675,-9.782533469341905,-2.175063133239746,3.007972478866577,-0.004830366000533104,-1.5452282968201265,3.2063506509216237,-1.9019568253808494
1787727003,639170150,-1.5023148839886692e-16,-0.003984926914611851,-9.782648365999169,-0.3115531802177429,3.4443604946136475,-0.01661728322505951,-1.4190920065508816,3.270110396529243,-1.7896652157786588
1787727003,661711596,-1.5186264530016042e-16,-0.003984936324031577,-9.782671465304741,-2.3826518058776855,2.908280611038208,-0.00035625696182250977,-2.074272241642616,3.1200560691292347,-2.1387763441335856
1787727003,694114143,-1.6031578437232895e-16,-0.003984983608038183,-9.782787543421033,-2.3826518058776855,2.908280611038208,-0.00035625696182250977,-1.5452600087224242,3.206236237022369,-2.25425265963092
1787727003,693370305,-1.6738884288106782e-16,-0.003985021711426427,-9.782881083919166,-2.594428777694702,3.045112133026123,-0.0029891561716794968,-2.119388539681407,3.091166259272004,-1.786573909199821
1787727003,726415984,-1.6738884288106782e-16,-0.003985021711426427,-9.782881083919166,-2.594428777694702,3.045112133026123,-0.0029891561716794968,-2.119710290546049,3.0914936960660175,-2.1405485074052164
1787727003,774754641,-1.7474167361180584e-16,-0.003985060050965139,-9.782975204146117,-2.594428777694702,3.045112133026123,-0.0029891561716794968,-1.7567762215368912,3.1449511238794288,-1.8430381905985624
1787727003,782895154,-1.7661199188122412e-16,-0.0039850696717400585,-9.782998822310272,-2.594428777694702,3.045112133026123,-0.0029891561716794968,-2.151090411816917,3.0976656055406693,-1.7848351415687531
1787727003,785068065,-1.7661199188122412e-16,-0.0039850696717400585,-9.782998822310272,-2.594428777694702,3.045112133026123,-0.0029891561716794968,-1.4189776673843955,3.2702542373578942,-2.1434126481027396
1787727003,803450599,-1.823841490181435e-16,-0.003985098618055838,-9.78306988299337,-2.594428777694702,3.045112133026123,-0.0029891561716794968,-2.1513122771799047,3.097836036093177,-2.138060576827019
1787727003,828548874,-1.8432846180454891e-16,-0.003985108294378689,-9.783093637522857,-2.594428777694702,3.045112133026123,-0.0029891561716794968,-1.756813485584092,3.1448343551168194,-2.1953277079428455
1787727003,845094115,-1.8634405084849612e-16,-0.003985117984254281,-9.783117425323143,-2.594428777694702,3.045112133026123,-0.0029891561716794968,-2.158230779004706,3.0724118642491414,-1.7843497535286865
1787727003,877324353,-1.9645619273455999e-16,-0.003985166632258026,-9.783236851933557,-2.594428777694702,3.045112133026123,-0.0029891561716794968,-2.1583912829924965,3.0724891612965566,-2.137210811508991
1787727003,928293243,-2.0936201726249007e-16,-0.003985225429306452,-9.78338119356435,-2.594428777694702,3.045112133026123,-0.0029891561716794968,-1.9432556641679868,3.0733185053359358,-1.811546669159255
1787727003,934923980,-2.1156912162949223e-16,-0.003985235271448455,-9.783405355165405,-2.594428777694702,3.045112133026123,-0.0029891561716794968,-1.6335821537651656,3.1781919453967857,-1.7869870132162111
1787727003,954721186,-2.1384999203470799e-16,-0.003985245125420123,-9.783429545807255,-2.594428777694702,3.045112133026123,-0.0029891561716794968,-1.6337485739175486,3.17853859000116,-2.140465188079395
1787727003,994425704,-2.1610047012321735e-16,-0.003985254991090042,-9.783453765167293,-2.1917307376861572,3.110294818878174,-0.003212708979845047,-1.943308983344676,3.073206727782968,-2.1638618269323575
1787727003,964102463,-2.2072110711184426e-16,-0.003985274756999868,-9.783502288753674,-2.1917307376861572,3.110294818878174,-0.003212708979845047,-1.6987484147303815,3.1641932010875746,-1.785795792263232
1787727003,986297091,-2.30180634286045e-16,-0.003985314423436324,-9.783599666398965,-2.1917307376861572,3.110294818878174,-0.003212708979845047,-1.846615847999876,3.1017601480341277,-1.7847752036797373
1787727004,90107466,-2.52891892590334e-16,-0.003985404291133425,-9.783820283764998,-2.1520612239837646,3.0018069744110107,-0.005301568657159805,-1.4682128903332237,3.1853236536858125,-1.8008249400634586
1787727004,190354460,-2.8059356969157574e-16,-0.003985505054284681,-9.784067648521624,-2.1520612239837646,3.0018069744110107,-0.005301568657159805,-1.8469477280684212,3.1022843812804894,-2.1388748911242343
1787727004,208342874,-2.9241613860641433e-16,-0.00398554560048147,-9.784167185901863,-2.1520612239837646,3.0018069744110107,-0.005301568657159805,-1.6987500734905394,3.1642526575952052,-2.1394168291140643
1787727004,234992229,-2.985274897473446e-16,-0.003985565921183994,-9.784217071455966,-0.30860692262649536,3.4186630249023438,-0.014030024409294128,-2.060000493069686,3.086664333688441,-1.7862619288739676
1787727004,258327615,-3.110575358278459e-16,-0.003985606652816249,-9.78431706406411,-0.30860692262649536,3.4186630249023438,-0.014030024409294128,-2.06024926802906,3.086869378449536,-2.1398051650340877
1787727004,325172712,-3.411811457099904e-16,-0.003985698702790923,-9.784543038731389,-0.30860692262649536,3.4186630249023438,-0.014030024409294128,-2.0977456636582774,3.0935774132216363,-1.7848980768950413
1787727004,340022366,-3.411811457099904e-16,-0.003985698702790923,-9.784543038731389,-0.30860692262649536,3.4186630249023438,-0.014030024409294128,-2.098069470318163,3.093870366407235,-2.138624023484054
1787727004,382677234,-3.664843272805518e-16,-0.003985770638309776,-9.784719634162238,-0.30860692262649536,3.4186630249023438,-0.014030024409294128,-2.113481372797353,3.067681793777927,-1.78460152741187
1787727004,407391190,-3.7404003624767454e-16,-0.003985791239644841,-9.78477020864477,-0.30860692262649536,3.4186630249023438,-0.014030024409294128,-2.1137127609897814,3.0678389788262797,-2.1377680812700843
1787727004,449468728,-3.936053657707904e-16,-0.003985842827283137,-9.784896851801808,-2.109278917312622,3.019263505935669,-0.005856404080986977,-1.6008169304841209,3.1675757193470098,-1.7868218867963115
1787727004,444693685,-3.9760160471370024e-16,-0.003985853158323918,-9.784922213606752,-2.109278917312622,3.019263505935669,-0.005856404080986977,-2.4659900019625587,3.0178107454385295,-2.8670950040065315
1787727004,493101245,-4.268958253184181e-16,-0.003985925587642726,-9.785100021273433,-2.5244927406311035,3.036536931991577,-0.0039036162197589874,-1.6009768495346834,3.167859272631314,-2.1402191096290353
1787727004,544417453,-4.58239403664343e-16,-0.003985998184966315,-9.785278241377197,-2.349440336227417,2.895000696182251,-0.001587357372045517,-1.7631560723507385,3.155720601698542,-1.7857232383463548
1787727004,681258007,-5.330533704278343e-16,-0.003986154137755457,-9.785661091885796,-2.349440336227417,2.895000696182251,-0.001587357372045517,-1.4682512401070698,3.185214010768597,-2.1531401273246895
1787727004,724886024,-5.661479639346087e-16,-0.003986216602592639,-9.785814437618257,-2.349440336227417,2.895000696182251,-0.001587357372045517,-1.7633401790541703,3.155956689542133,-2.1389842567703354
1787727004,736178198,-5.71818146742671e-16,-0.003986227015318991,-9.785839999954145,-2.349440336227417,2.895000696182251,-0.001587357372045517,-1.138506409144013,3.2591513363665974,-1.7961768803806923
1787727004,777171981,-5.952133466402586e-16,-0.003986268667895612,-9.785942253400378,-2.349440336227417,2.895000696182251,-0.001587357372045517,-1.1385210486931396,3.2590296824369203,-2.148547278392434
1787727004,782091731,-6.012174391891765e-16,-0.003986279080942889,-9.785967816524106,-2.349440336227417,2.895000696182251,-0.001587357372045517,-1.8622113960987932,3.117884816960564,-1.7877495975263917
1787727004,787428602,-6.320667682670651e-16,-0.0039863311405024405,-9.786095618206609,-2.0862510204315186,3.0193207263946533,-0.006337283179163933,-1.8624579543804805,3.1181513506626377,-2.141625808738309
1787727004,820962206,-6.383751699066219e-16,-0.003986341550572825,-9.786121174022325,-2.0862510204315186,3.0193207263946533,-0.006337283179163933,-1.4925507675221996,3.159132056974254,-1.7893617973068052
1787727004,864056396,-6.71113275413733e-16,-0.003986393586231124,-9.78624891702932,-0.34098654985427856,3.403057813644409,-0.011146774515509605,-1.492568020260022,3.1590044442310217,-2.1417079123848457
1787727004,860311706,-6.846048330316121e-16,-0.003986414391798585,-9.786299992884537,-2.118549346923828,3.1312358379364014,-0.004116985946893692,-2.050823099671323,3.0949864676059193,-1.7864201807125506
1787727004,907061182,-6.915273289551623e-16,-0.003986424792328327,-9.786325525278802,-2.118549346923828,3.1312358379364014,-0.004116985946893692,-1.8057483615052585,3.1265428029799653,-1.7860520217686058
1787727004,927171704,-7.054161432649801e-16,-0.003986445588396405,-9.786376577813858,-2.118549346923828,3.1312358379364014,-0.004116985946893692,-2.0513323845182243,3.0954906250313416,-2.1412074319124574
1787727004,941422528,-7.268374356574585e-16,-0.003986476768581309,-9.786453122450895,-2.118549346923828,3.1312358379364014,-0.004116985946893692,-1.8057692576442275,3.126414525256575,-2.138396844279222
1787727004,954389087,-7.268374356574585e-16,-0.003986476768581309,-9.786453122450895,-2.118549346923828,3.1312358379364014,-0.004116985946893692,-2.4663706471805003,3.0176970198882933,-3.2200068354025064
1787727004,984251804,-7.638939268363581e-16,-0.003986528692120559,-9.786580590215355,-2.118549346923828,3.1312358379364014,-0.004116985946893692,-1.9154109547415465,3.121741953119389,-1.7841730137136365
1787727004,979232149,-7.792453273521925e-16,-0.003986549444148044,-9.786631534634578,-2.118549346923828,3.1312358379364014,-0.004116985946893692,-2.1362040153829507,3.038489680987686,-1.7853627077752736
1787727004,999654287,-7.792453273521925e-16,-0.003986549444148044,-9.786631534634578,-2.118549346923828,3.1312358379364014,-0.004116985946893692,-2.1365753523797006,3.0387533989192694,-2.1392403855498543
1787727005,20167530,-8.028864002441325e-16,-0.003986580551248983,-9.78670789985683,-2.118549346923828,3.1312358379364014,-0.004116985946893692,-1.9154327575349224,3.121613473028,-2.136519536817624
1787727005,47026194,-8.436975635357031e-16,-0.003986632334514744,-9.786835023262057,-2.118549346923828,3.1312358379364014,-0.004116985946893692,-2.122367612188712,3.033235227122019,-1.7854643538002275
1787727005,77755056,-8.606541660998649e-16,-0.003986653024061262,-9.786885814295937,-2.118549346923828,3.1312358379364014,-0.004116985946893692,-1.982639224265015,3.087501874972016,-1.783653730008194
1787727005,85821766,-8.606541660998649e-16,-0.003986653024061262,-9.786885814295937,-2.118549346923828,3.1312358379364014,-0.004116985946893692,-2.1225568946908697,3.033301195246213,-2.138492767016802
1787727005,112504122,-8.692300324444251e-16,-0.003986663363388543,-9.786911196443473,-2.118549346923828,3.1312358379364014,-0.004116985946893692,-1.85831658520235,3.1508359243139585,-1.7846029658555218
1787727005,125606288,-9.043728305281312e-16,-0.00398670468235051,-9.787012630894687,-2.118549346923828,3.1312358379364014,-0.004116985946893692,-1.6163643836576884,3.1384425726374308,-1.7866663887564807
1787727005,184454878,-9.692850999380812e-16,-0.003986776829644316,-9.787189746214233,-2.118549346923828,3.1312358379364014,-0.004116985946893692,-1.8584501158322084,3.1511161230617644,-2.140746436040939
1787727005,236487322,-1.0491379593936518e-15,-0.00398685900101527,-9.787391469769645,-2.0510823726654053,3.0315866470336914,-0.00672178715467453,-1.616516269013174,3.13862809341702,-2.1399406681851065
1787727005,276394650,-1.1242179422228609e-15,-0.0039869306222625606,-9.787567293690726,-2.0861217975616455,3.143437147140503,-0.004722924903035164,-1.9532864177381628,3.139445582531126,-1.7851913665307335
1787727005,302700587,-1.2407763349971913e-15,-0.003987032431682766,-9.787817226945632,-2.3346750736236572,2.903033971786499,-0.0026020966470241547,-1.759511728440566,3.1369596219178155,-1.7868153821527533
1787727005,342794925,-1.2780168685540077e-15,-0.003987062848473648,-9.787891897516694,-2.3346750736236572,2.903033971786499,-0.0026020966470241547,-1.7598258329776977,3.137351732482463,-2.141068030762915
1787727005,355206055,-1.2906893456972509e-15,-0.003987072973793045,-9.787916754293478,-2.3346750736236572,2.903033971786499,-0.0026020966470241547,-1.9533265315097537,3.1393755964928034,-2.138174644635065
1787727005,381537294,-1.3964257907154482e-15,-0.003987153721113213,-9.788114981928002,-2.3346750736236572,2.903033971786499,-0.0026020966470241547,-1.8427121795577963,3.1073104566705814,-1.7869508088015107
1787727005,409407810,-1.3964257907154482e-15,-0.003987153721113213,-9.788114981928002,-2.3346750736236572,2.903033971786499,-0.0026020966470241547,-1.8428495635606528,3.107370785911979,-2.139978598710995
1787727005,419202108,-1.5107480258662636e-15,-0.003987233989620112,-9.788312034117572,-0.35320866107940674,3.396754741668701,-0.008901132270693779,-1.9976949207045447,3.1051821709541305,-1.7846686748009044
1787727005,447231832,-1.5107480258662636e-15,-0.003987233989620112,-9.788312034117572,-0.35320866107940674,3.396754741668701,-0.008901132270693779,-2.0229442501283583,3.0896713623465084,-1.7859007891334076
1787727005,451452746,-1.5256235688392557e-15,-0.003987243987800452,-9.788336578779022,-0.35320866107940674,3.396754741668701,-0.008901132270693779,-1.9977233848189242,3.105080617452089,-2.1373579595840324
1787727005,452653107,-1.602456845648642e-15,-0.003987293856199671,-9.788459001353338,-0.35320866107940674,3.396754741668701,-0.008901132270693779,-2.3667534447010867,3.0512897596318425,-2.275220874186586
1787727005,454117182,-1.602456845648642e-15,-0.003987293856199671,-9.788459001353338,-0.35320866107940674,3.396754741668701,-0.008901132270693779,-1.9826667966963107,3.0873765087171003,-2.136012876320234
1787727005,473658175,-1.7164917711782208e-15,-0.003987363317475088,-9.788629522731217,-0.35320866107940674,3.396754741668701,-0.008901132270693779,-2.0231087757228097,3.0897275706223675,-2.138862521646627
1787727005,486662736,-1.7164917711782208e-15,-0.003987363317475088,-9.788629522731217,-0.35320866107940674,3.396754741668701,-0.008901132270693779,-2.147402101414273,3.085521374927653,-1.7835960093111
1787727005,502746153,-1.8205116341536715e-15,-0.00398742251222823,-9.788774840691513,-0.35320866107940674,3.396754741668701,-0.008901132270693779,-2.0411154355438885,3.105010125379588,-1.7851561876942976
1787727005,517632010,-1.93083391436434e-15,-0.003987481376500666,-9.78891934735039,-0.35320866107940674,3.396754741668701,-0.008901132270693779,-2.1474250718680423,3.085401855712083,-2.1361222569421345
1787727005,531987339,-1.949883609921525e-15,-0.003987491154219331,-9.78894335079759,-0.35320866107940674,3.396754741668701,-0.008901132270693779,-2.136654450717306,3.072931543651269,-1.7832202874772425
1787727005,553556335,-1.949883609921525e-15,-0.003987491154219331,-9.78894335079759,-0.35320866107940674,3.396754741668701,-0.008901132270693779,-2.20481628363161,3.031240315473849,-1.7823004565720413
1787727005,582013481,-1.969117844582308e-15,-0.0039875009223631,-9.788967330739249,-0.35320866107940674,3.396754741668701,-0.008901132270693779,-2.204844488395532,3.031122109228317,-2.134821834256664
1787727005,595718578,-1.969117844582308e-15,-0.0039875009223631,-9.788967330739249,-0.35320866107940674,3.396754741668701,-0.008901132270693779,-2.136698973066262,3.0728144677422837,-2.1356947455350053
1787727005,601781286,-2.0278397922013576e-15,-0.003987530168799759,-9.789039128192403,-2.056525468826294,3.142014980316162,-0.005217127501964569,-2.041304198334414,3.1050947430553077,-2.138133666574715
1787727005,629786609,-2.108912926834163e-15,-0.003987569026724053,-9.789134521010023,-2.056525468826294,3.142014980316162,-0.005217127501964569,-2.1251057357359566,3.0480604922675556,-1.7850899232163013
1787727005,670237565,-2.1505589892844004e-15,-0.003987588395883765,-9.789182070609044,-2.056525468826294,3.142014980316162,-0.005217127501964569,-2.197124327696548,3.022244639672199,-1.782204186079018
1787727005,743296277,-2.3717090999859817e-15,-0.003987684627357405,-9.789418310489843,-2.0164599418640137,3.035691022872925,-0.0071970149874687195,-2.197168211605776,3.022125373608461,-2.1346856484239303
1787727005,756198633,-2.46635551332784e-15,-0.0039877228259331,-9.789512084663913,-2.0164599418640137,3.035691022872925,-0.0071970149874687195,-2.125245371841003,3.0480658409480124,-2.1379585487394452
1787727005,784851589,-2.515116912481173e-15,-0.003987741860700688,-9.789558813359315,-2.0164599418640137,3.035691022872925,-0.0071970149874687195,-1.6219020890639722,3.147595467703312,-1.7868441524552496
1787727005,787627730,-2.5899650934437994e-15,-0.003987770331173971,-9.789628705889772,-2.0164599418640137,3.035691022872925,-0.0071970149874687195,-2.1711863664074302,3.0276831790587764,-1.7828476684503136
1787727005,801636842,-2.6670626851730997e-15,-0.00398779870256331,-9.789698355177752,-2.0164599418640137,3.035691022872925,-0.0071970149874687195,-1.6219861557906636,3.1476461052694695,-2.139879795935573
1787727005,822375596,-2.6932962268399645e-15,-0.003987808137470115,-9.7897215170516,-2.0164599418640137,3.035691022872925,-0.0071970149874687195,-2.171346000588375,3.0276876127964267,-2.136029065010746
1787727005,833851079,-2.8006382675615647e-15,-0.003987845764841121,-9.789813888967752,-2.0164599418640137,3.035691022872925,-0.0071970149874687195,-2.1657122298129536,3.021244294510871,-1.7828916304082352
1787727005,916999704,-2.8006382675615647e-15,-0.003987845764841121,-9.789813888967752,-2.0164599418640137,3.035691022872925,-0.0071970149874687195,-1.6515912769810686,3.134195514639035,-1.7850617920435163
1787727005,865923409,-2.940861897720033e-15,-0.00398789254335488,-9.789928726141628,-1.9928206205368042,3.166783571243286,-0.005467338487505913,-1.745569510429036,3.146133298918759,-1.7861181273826245
1787727005,959883783,-2.940861897720033e-15,-0.00398789254335488,-9.789928726141628,-1.9928206205368042,3.166783571243286,-0.005467338487505913,-1.6516182623523248,3.1341276804922726,-2.1378269513800507
1787727005,967893389,-2.9988608605348665e-15,-0.003987911174167432,-9.789974463162476,-1.9928206205368042,3.166783571243286,-0.005467338487505913,-2.1657805392221325,3.021139038099726,-2.1354340696452736
1787727005,968704430,-2.9988608605348665e-15,-0.003987911174167432,-9.789974463162476,-1.9928206205368042,3.166783571243286,-0.005467338487505913,-1.7460156697485683,3.1468370870736453,-2.1414638943783078
1787727005,988145716,-3.028308446881691e-15,-0.0039879204721456184,-9.789997288888456,-1.9928206205368042,3.166783571243286,-0.005467338487505913,-2.367116279594479,3.051180500269165,-2.628374503129188
1787727006,30684072,-3.2744040121756817e-15,-0.003987994432659981,-9.790178855504172,-1.9928206205368042,3.166783571243286,-0.005467338487505913,-1.7842133129347426,3.1332289228113117,-1.7844372444330414
1787727006,50265965,-3.3389556194317024e-15,-0.0039880128038437684,-9.790223955158927,-1.9928206205368042,3.166783571243286,-0.005467338487505913,-1.6477852988928732,3.129483180781989,-1.7848388218132136
1787727006,66257276,-3.4381491256225282e-15,-0.003988040270245418,-9.79029138278065,-2.4188504219055176,3.0598931312561035,-0.005104433745145798,-1.7842432744462993,3.1331457844173256,-2.1371150207954743
1787727006,102417809,-3.7537471767099124e-15,-0.003988122010184605,-9.790492047205534,-2.3201448917388916,2.903416872024536,-0.003316529095172882,-1.8231818039198564,3.115541218918182,-1.7884234651769275
1787727006,110671328,-3.8277355560302075e-15,-0.003988140038642073,-9.79053630549689,-0.3437848389148712,3.404334783554077,-0.0049301981925964355,-1.8600154763713692,3.1042253369946065,-1.7846824143979694
1787727006,129295272,-3.865215767672772e-15,-0.003988149034140114,-9.79055838866034,-0.3437848389148712,3.404334783554077,-0.0049301981925964355,-1.6478238568993682,3.129370760133033,-2.137362540378656
1787727006,134638843,-4.0190143218058776e-15,-0.003988184890556636,-9.79064641303682,-0.3437848389148712,3.404334783554077,-0.0049301981925964355,-1.8600356035598613,3.104116345905767,-2.1372550706294486
1787727006,134910656,-3.980007007574259e-15,-0.0039881759453482685,-9.79062445333016,-0.3437848389148712,3.404334783554077,-0.0049301981925964355,-1.8234116357902304,3.1157653650034938,-2.14238161458668
1787727006,188396668,-4.3450941603403736e-15,-0.003988255994595171,-9.790820967252,-1.9797149896621704,3.022503137588501,-0.0080534927546978,-2.0349542557428495,3.087208976019833,-1.7842283017496214
1787727006,204389279,-4.3450941603403736e-15,-0.003988255994595171,-9.790820967252,-1.9797149896621704,3.022503137588501,-0.0080534927546978,-1.8717102210747185,3.130361339549591,-1.7877271038104665
1787727006,216401988,-4.4305931132920005e-15,-0.003988273642474296,-9.790864291256488,-1.9797149896621704,3.022503137588501,-0.0080534927546978,-2.0349796132035687,3.0870998660404037,-2.136798916340478
1787727006,225107529,-4.4305931132920005e-15,-0.003988273642474296,-9.790864291256488,-1.9797149896621704,3.022503137588501,-0.0080534927546978,-1.8829872706306603,3.1052982015231754,-1.7843507177341644
1787727006,235525357,-4.474017364770345e-15,-0.003988282447047661,-9.790885905716397,-1.9797149896621704,3.022503137588501,-0.0080534927546978,-1.8719318667825502,3.130552263652874,-2.141440328223024
1787727006,265674286,-4.7434332335690655e-15,-0.003988335001763471,-9.791014922961104,-1.9797149896621704,3.022503137588501,-0.0080534927546978,-2.027518960768694,3.110506864588093,-1.7869425285669664
1787727006,315519813,-5.078220622823176e-15,-0.0039883957195661675,-9.791163979871925,-1.935158371925354,3.190419912338257,-0.005933437496423721,-2.049510071150405,3.1030065306700627,-1.7839773481200987
1787727006,330888692,-5.331676945407724e-15,-0.003988438692341136,-9.791269474286821,-1.935158371925354,3.190419912338257,-0.005933437496423721,-2.0495670866098434,3.1029402257261443,-2.1366839590430526
1787727006,353200023,-5.543551728752838e-15,-0.0039884728302796695,-9.79135327994857,-1.935158371925354,3.190419912338257,-0.005933437496423721,-2.130513161417896,3.0460947740861934,-1.7832800982778725
1787727006,369831866,-5.4898144836304514e-15,-0.003988464315898828,-9.791332377886203,-1.935158371925354,3.190419912338257,-0.005933437496423721,-2.13052678139784,3.045967616182708,-2.135805647426898
1787727006,389970887,-5.8200939586055996e-15,-0.003988515200286437,-9.791457294619635,-1.935158371925354,3.190419912338257,-0.005933437496423721,-1.6259985371130896,3.1454535933264958,-1.7844779404396214
1787727006,403785588,-5.9346232288333224e-15,-0.003988532053728032,-9.791498668348698,-1.935158371925354,3.190419912338257,-0.005933437496423721,-1.626006227700041,3.1453255571095733,-2.1369949870923604
1787727006,421442683,-5.877082574254327e-15,-0.003988523633779455,-9.791477998109386,-1.935158371925354,3.190419912338257,-0.005933437496423721,-1.748219492318202,3.144291164874443,-1.7843033753666928
1787727006,421737298,-6.2915469885187985e-15,-0.003988582288035726,-9.791621989192087,-1.935158371925354,3.190419912338257,-0.005933437496423721,-2.0277440891440324,3.110640465620585,-2.1403611675231207
1787727006,436809462,-6.353101751529062e-15,-0.0039885906127036155,-9.791642425525541,-1.935158371925354,3.190419912338257,-0.005933437496423721,-1.748226999176407,3.1441611826164695,-2.136814195342911
1787727006,479384320,-6.934727894644911e-15,-0.0039886649175555604,-9.79182483745438,-1.935158371925354,3.190419912338257,-0.005933437496423721,-1.7136088404431078,3.164643148366511,-2.023274419636945
1787727006,506431992,-7.002563819256364e-15,-0.003988673104817837,-9.791844936468907,-1.935158371925354,3.190419912338257,-0.005933437496423721,-2.111508234092577,3.0522737924821484,-1.7877667929904104
1787727006,532892533,-7.14016103414659e-15,-0.0039886894378833235,-9.791885032719524,-1.935158371925354,3.190419912338257,-0.005933437496423721,-2.111825691212413,3.0524585881950297,-2.1417696755569904
1787727006,591443702,-7.496174931179541e-15,-0.003988730028131664,-9.791984678237208,-1.935158371925354,3.190419912338257,-0.005933437496423721,-1.6091291426265393,3.1525637097426644,-1.7869955645212627
1787727006,594099836,-7.569449912611171e-15,-0.0039887381045310205,-9.792004505092814,-1.948652982711792,3.0460453033447266,-0.008562926203012466,-1.6092553170054091,3.152740475624448,-2.140690157434636
1787727006,597134890,-7.569449912611171e-15,-0.0039887381045310205,-9.792004505092814,-1.948652982711792,3.0460453033447266,-0.008562926203012466,-1.824379845114966,3.113289325271203,-1.7847699102540413
1787727006,631310023,-7.946769076203586e-15,-0.0039887782776779224,-9.79210312666238,-1.948652982711792,3.0460453033447266,-0.008562926203012466,-1.8830303458116857,3.105184596160442,-2.1369000540916643
1787727006,669780473,-8.424411578648031e-15,-0.003988826024683388,-9.792220341393142,-1.948652982711792,3.0460453033447266,-0.008562926203012466,-1.4488271387840532,3.1879656051013097,-1.7855361213637102
1787727006,674717823,-8.424411578648031e-15,-0.003988826024683388,-9.792220341393142,-1.948652982711792,3.0460453033447266,-0.008562926203012466,-1.7145566515711423,3.1156333194533703,-1.7868937114428558
1787727006,678941638,-8.424411578648031e-15,-0.003988826024683388,-9.792220341393142,-1.948652982711792,3.0460453033447266,-0.008562926203012466,-1.8244438350557053,3.1132537369120925,-2.137508386926425
1787727006,703951605,-8.75861070377099e-15,-0.0039888575758739,-9.792297796811493,-1.948652982711792,3.0460453033447266,-0.008562926203012466,-1.4488398750483842,3.1878364061935214,-2.138102198658073
1787727006,707255073,-8.844219817730117e-15,-0.003988865428580004,-9.792317074519405,-1.948652982711792,3.0460453033447266,-0.008562926203012466,-1.714804156734911,3.1159920715814766,-2.1411341366623504
1787727006,741425505,-9.284918137696596e-15,-0.0039889044812074165,-9.79241294530994,-2.3825645446777344,3.068063735961914,-0.0055080596357584,-1.621365330441772,3.174734699056053,-1.7850672513093975
1787727006,756242957,-9.653209446222169e-15,-0.003988935469847584,-9.792489019715488,-2.2748796939849854,2.9140117168426514,-0.003931522369384766,-1.7775167673208159,3.137199578765819,-1.7871293291971106
1787727006,776836101,-1.0333101253895104e-14,-0.0039889891567376256,-9.79262081634149,-1.8832663297653198,3.207249879837036,-0.0063542090356349945,-1.6213796042573994,3.174604936127466,-2.1376283999590413
1787727006,783796453,-1.0333101253895104e-14,-0.0039889891567376256,-9.79262081634149,-1.8832663297653198,3.207249879837036,-0.0063542090356349945,-1.7776679173887668,3.1373377147179995,-2.140568989720764
1787727006,816811927,-1.0742864766793153e-14,-0.003989019524069125,-9.792695365487482,-1.8832663297653198,3.207249879837036,-0.0063542090356349945,-1.7138250759653784,3.1645516343108397,-2.3766103169790966
1787727006,817480061,-1.0742864766793153e-14,-0.003989019524069125,-9.792695365487482,-1.8832663297653198,3.207249879837036,-0.0063542090356349945,-1.82633983654765,3.111438252239528,-1.7875534090151262
1787727006,817785277,-1.0742864766793153e-14,-0.003989019524069125,-9.792695365487482,-1.8832663297653198,3.207249879837036,-0.0063542090356349945,-1.7268325968655827,3.1722914857750086,-1.7848389277500774
1787727006,852408632,-1.1168843050401355e-14,-0.003989049665031929,-9.792769358917687,-0.3259255588054657,3.4152655601501465,0.0005955994129180908,-1.726849331657245,3.1721630757711674,-2.137404948653948
1787727006,893664723,-1.195528526631008e-14,-0.00398910186659122,-9.792897509183716,-0.3259255588054657,3.4152655601501465,0.0005955994129180908,-1.9232954291195306,3.140200097682751,-1.7846002194681114
1787727006,937827162,-1.255066953831751e-14,-0.003989138728448858,-9.792988001821875,-0.3259255588054657,3.4152655601501465,0.0005955994129180908,-1.9233140538413231,3.1400716391389283,-2.1371684171070497
1787727007,870159,-1.330433002845672e-14,-0.00398918249516452,-9.79309544530462,-0.3259255588054657,3.4152655601501465,0.0005955994129180908,-1.826421105897954,3.111433401295104,-2.1404917424357017
1787727007,22814971,-1.3966765036988802e-14,-0.003989218577974256,-9.793184025452907,-1.9190601110458374,3.0412447452545166,-0.009079432114958763,-2.035973358598815,3.072803482310313,-1.7839431917363853
1787727007,36199750,-1.3966765036988802e-14,-0.003989218577974256,-9.793184025452907,-1.9190601110458374,3.0412447452545166,-0.009079432114958763,-1.9850268417076211,3.0997359100058692,-1.788644023403754
1787727007,60159164,-1.452033748602392e-14,-0.003989247189460684,-9.793254264159847,-1.9190601110458374,3.0412447452545166,-0.009079432114958763,-1.9852651221093445,3.099907275375201,-2.142456603951395
1787727007,117907092,-1.4949881929996383e-14,-0.003989268499571899,-9.793306578629705,-1.9190601110458374,3.0412447452545166,-0.009079432114958763,-2.067677357194508,3.047059407917822,-1.7872774756955112
1787727007,143891809,-1.5243242012254465e-14,-0.003989282635643899,-9.793341281458634,-1.9190601110458374,3.0412447452545166,-0.009079432114958763,-2.0678484896109026,3.047111540532242,-2.1405470349397806
1787727007,159970525,-1.5542365917512958e-14,-0.003989296715223775,-9.793375845582691,-1.9190601110458374,3.0412447452545166,-0.009079432114958763,-1.872275315392713,3.1283996084661894,-1.784838897969624
1787727007,194525976,-1.600211149008744e-14,-0.00398931772871091,-9.793427431869542,-1.9190601110458374,3.0412447452545166,-0.009079432114958763,-2.0154846378303954,3.09261995941352,-1.7868366508562938
1787727007,212217073,-1.6158356316387642e-14,-0.003989324704992246,-9.793444558034599,-1.9190601110458374,3.0412447452545166,-0.009079432114958763,-2.0157112285615466,3.09275954720587,-2.140290382315425
1787727007,230889120,-1.6798670983225202e-14,-0.003989352469171909,-9.793512716685198,-1.9190601110458374,3.0412447452545166,-0.009079432114958763,-1.7985576162539816,3.1651535459126183,-1.9034248220542627
1787727007,236485604,-1.6798670983225202e-14,-0.003989352469171909,-9.793512716685198,-1.9190601110458374,3.0412447452545166,-0.009079432114958763,-1.5356730603493565,3.1843915569840657,-1.7847470073048886
1787727007,239649664,-1.6798670983225202e-14,-0.003989352469171909,-9.793512716685198,-1.9190601110458374,3.0412447452545166,-0.009079432114958763,-1.8724989093101552,3.1286162765133176,-2.1390430245142555
1787727007,255357460,-1.6962684412597838e-14,-0.003989359375005828,-9.793529669907855,-1.9190601110458374,3.0412447452545166,-0.009079432114958763,-1.535715187777833,3.1843496918518914,-2.137569021633812
1787727007,308727366,-1.7806999043484064e-14,-0.003989393693184854,-9.793613918057288,-1.7865049839019775,3.2458555698394775,-0.006816800683736801,-2.0360250592963007,3.072698803229899,-2.1365682283278375
1787727007,311777721,-1.7806999043484064e-14,-0.003989393693184854,-9.793613918057288,-1.7865049839019775,3.2458555698394775,-0.006816800683736801,-1.6446395223642059,3.1436917978733057,-1.7856649770868431
1787727007,352444483,-1.887579458442458e-14,-0.00398943441162691,-9.793713878296028,-0.3201636075973511,3.4175546169281006,0.00010207667946815491,-1.5557149693944958,3.166808248151204,-1.7840984025309135
1787727007,368792711,-2.0008667706491333e-14,-0.003989474625951922,-9.793812600970552,-0.3201636075973511,3.4175546169281006,0.00010207667946815491,-1.999681030430124,3.0645976337044827,-1.7851717462190906
1787727007,396257704,-2.0203985682871293e-14,-0.003989481279440403,-9.793828934706728,-0.3201636075973511,3.4175546169281006,0.00010207667946815491,-1.5557297630424685,3.166681145934983,-2.1367095202675412
1787727007,443275987,-2.1209481605401603e-14,-0.003989514337797316,-9.793910090100658,-0.3201636075973511,3.4175546169281006,0.00010207667946815491,-1.6760980425166152,3.125662368075085,-1.784962566427974
1787727007,457674817,-2.1416535999083676e-14,-0.003989520907710861,-9.793926218667533,-0.3201636075973511,3.4175546169281006,0.00010207667946815491,-1.9997580270413349,3.064540216807634,-2.138295524155917
1787727007,479019600,-2.1836628865875555e-14,-0.003989534005850212,-9.793958373461459,-2.3518528938293457,3.0766656398773193,-0.005790727213025093,-1.6761152306440155,3.1255360639876013,-2.1375764903775427
1787727007,500301679,-2.1836628865875555e-14,-0.003989534005850212,-9.793958373461459,-2.3518528938293457,3.0766656398773193,-0.005790727213025093,-1.644821860911304,3.1439212485779646,-2.139154392948946
1787727007,526154389,-2.292328520966295e-14,-0.003989566508448532,-9.79403816451573,-2.3518528938293457,3.0766656398773193,-0.005790727213025093,-1.7496579775517889,3.1438611193295047,-1.7849942911724521
1787727007,533144944,-2.292328520966295e-14,-0.003989566508448532,-9.79403816451573,-2.3518528938293457,3.0766656398773193,-0.005790727213025093,-1.9941037497746397,3.0525407768347517,-1.7859976233152874
1787727007,571490888,-2.5017271853394567e-14,-0.003989624142488457,-9.794179651074264,-2.3518528938293457,3.0766656398773193,-0.005790727213025093,-1.7496758111127448,3.1437349542742337,-2.1376085943622893
1787727007,603825427,-2.5017271853394567e-14,-0.003989624142488457,-9.794179651074264,-2.3518528938293457,3.0766656398773193,-0.005790727213025093,-1.994148113134413,3.052446373692212,-2.1388763470238823
1787727007,607144995,-2.526136899686184e-14,-0.003989630477428207,-9.794195202800664,-2.3518528938293457,3.0766656398773193,-0.005790727213025093,-1.6854540391290112,3.173511281234504,-1.787915347866083
1787727007,624841892,-2.6518321735676988e-14,-0.003989661946410849,-9.794272456417321,-1.8895323276519775,3.055345296859741,-0.009689489379525185,-1.6857643099155806,3.17397216056162,-2.142860560749204
1787727007,648901512,-2.6518321735676988e-14,-0.003989661946410849,-9.794272456417321,-1.8895323276519775,3.055345296859741,-0.009689489379525185,-1.8061713270768058,3.1159152421071807,-1.785781958306147
1787727007,683966990,-2.7302306220844424e-14,-0.0039896806636353635,-9.794318405576204,-1.8895323276519775,3.055345296859741,-0.009689489379525185,-1.2975260459489406,3.2432050278470097,-1.786245212105007
1787727007,708345726,-2.8109400812794213e-14,-0.003989699258120794,-9.794364053421218,-1.8895323276519775,3.055345296859741,-0.009689489379525185,-1.9774320028783767,3.091567890809757,-1.7858591648654145
1787727007,713173471,-2.8383765828899624e-14,-0.003989705429063166,-9.79437920254818,-1.8895323276519775,3.055345296859741,-0.009689489379525185,-1.8062001018436717,3.115798700304571,-2.1384200499009856
1787727007,716534541,-2.8109400812794213e-14,-0.003989699258120794,-9.794364053421218,-1.8895323276519775,3.055345296859741,-0.009689489379525185,-1.297579273367287,3.243425827827706,-2.140078474166076
1787727007,759315010,-3.0380292533830445e-14,-0.003989748245855266,-9.79448431404962,-1.8895323276519775,3.055345296859741,-0.009689489379525185,-1.597319289586244,3.1961134977013286,-1.7864685297483864
1787727007,770136659,-3.0676706975537065e-14,-0.003989754308433902,-9.794499197152962,-2.270102024078369,2.9143335819244385,-0.004608241841197014,-1.7987781081279282,3.165059205881169,-2.2568056669600236
1787727007,771334019,-3.0676706975537065e-14,-0.003989754308433902,-9.794499197152962,-2.270102024078369,2.9143335819244385,-0.004608241841197014,-1.969825977342415,3.10216292212577,-1.785508594056216
1787727007,790089270,-3.1583502034470574e-14,-0.003989772415295823,-9.794543647924323,-2.270102024078369,2.9143335819244385,-0.004608241841197014,-1.5974143907802454,3.1962019524000054,-2.139825935450428
1787727007,807809568,-3.1583502034470574e-14,-0.003989772415295823,-9.794543647924323,-2.270102024078369,2.9143335819244385,-0.004608241841197014,-1.9774870068912833,3.0914905163783604,-2.138802961719012
1787727007,863480791,-3.283443984132789e-14,-0.003989796369569498,-9.794602453582913,-1.7371448278427124,3.267247438430786,-0.007250923663377762,-1.6804965937395517,3.1562230992433555,-1.7874079664784204
1787727007,894333855,-3.4134824363996645e-14,-0.0039898201095449545,-9.794660733157894,-1.7371448278427124,3.267247438430786,-0.007250923663377762,-1.6806539163421574,3.156401198794652,-2.1410250397063137
1787727007,898122447,-3.4467871164910705e-14,-0.003989826011158759,-9.794675221106475,-1.7371448278427124,3.267247438430786,-0.007250923663377762,-2.0925662696050815,3.084786281193102,-1.7857559172944582
1787727007,974907740,-3.761551627939055e-14,-0.003989878527838508,-9.794804144987205,-1.7371448278427124,3.267247438430786,-0.007250923663377762,-1.8483377979017914,3.087784433429738,-1.787278083271677
1787727007,974913140,-3.761551627939055e-14,-0.003989878527838508,-9.794804144987205,-1.7371448278427124,3.267247438430786,-0.007250923663377762,-2.092630784506004,3.0847076450791824,-2.138697885295657
1787727008,139415980,-4.567715286748132e-14,-0.003989991422214052,-9.795081290857755,-2.3440675735473633,3.0845186710357666,-0.006212115287780762,-1.8485591428234773,3.0879716401860318,-2.141066100740664
1787727008,174872178,-4.6572748362453655e-14,-0.0039900024262100355,-9.795108304710496,-1.8650645017623901,3.059446096420288,-0.010167518630623817,-1.9698504980493583,3.1020406102045004,-2.1381433627588877
1787727008,185844934,-4.7027063316676385e-14,-0.003990007908932058,-9.795121764316036,-1.8650645017623901,3.059446096420288,-0.010167518630623817,-1.8172215339727187,3.1393858623649273,-1.7889888083686039
1787727008,179301502,-4.7027063316676385e-14,-0.003990007908932058,-9.795121764316036,-1.8650645017623901,3.059446096420288,-0.010167518630623817,-1.8429961035367697,3.130023310239671,-1.845911559515625
1787727008,220169574,-4.984783844766771e-14,-0.003990040536450047,-9.795201862033853,-1.8650645017623901,3.059446096420288,-0.010167518630623817,-1.503271411773994,3.190966055057257,-1.7837875568287913
1787727008,258289507,-5.3353071205222174e-14,-0.003990078023046802,-9.79529388836715,-1.8650645017623901,3.059446096420288,-0.010167518630623817,-1.8175077925195493,3.1397187830843465,-2.1436365893501645
1787727008,303570602,-5.6553055039860626e-14,-0.003990109662515314,-9.795371560509293,-1.8650645017623901,3.059446096420288,-0.010167518630623817,-1.3918829752199082,3.2175206514096066,-1.787142648000669
1787727008,323042690,-5.766184725802031e-14,-0.003990120108802233,-9.795397205234702,-1.8650645017623901,3.059446096420288,-0.010167518630623817,-1.3919365719604717,3.2177070939681527,-2.140963766148251
1787727008,326916386,-5.879227814525603e-14,-0.003990130505224235,-9.795422727546075,-1.6936122179031372,3.2739651203155518,-0.007787203416228294,-1.5032868395927885,3.190844292898507,-2.1364726972335775
1787727008,400589721,-6.17163430203804e-14,-0.003990156279060987,-9.79548600007258,-1.6936122179031372,3.2739651203155518,-0.007787203416228294,-1.662611189056296,3.1798525343129733,-1.786955002841755
1787727008,411716685,-6.231839689635887e-14,-0.0039901613967352565,-9.795498563517592,-1.6936122179031372,3.2739651203155518,-0.007787203416228294,-1.5837094815145718,3.206388006160638,-1.7845070378180807
1787727008,425747496,-6.292628254794055e-14,-0.003990166502087512,-9.795511096713135,-1.6936122179031372,3.2739651203155518,-0.007787203416228294,-1.6627396804229748,3.1800314871633315,-2.1406693454211845
1787727008,454081433,-6.478581538277332e-14,-0.0039901817443948485,-9.79554851525132,-2.3307130336761475,3.072465181350708,-0.0067773256450891495,-1.5837322708600932,3.206274560449921,-2.1372207246620034
1787727008,475827535,-6.605587779849749e-14,-0.003990191844658643,-9.795573310520055,-2.2739498615264893,2.913325548171997,-0.005054080858826637,-1.7202812927190667,3.145765111166963,-1.7880108441790632
1787727008,478866789,-6.605587779849749e-14,-0.003990191844658643,-9.795573310520055,-2.2739498615264893,2.913325548171997,-0.005054080858826637,-1.7204053060410116,3.1458938937488496,-2.1414985706954783
1787727008,498414080,-6.605587779849749e-14,-0.003990191844658643,-9.795573310520055,-2.2739498615264893,2.913325548171997,-0.005054080858826637,-1.2250438012377882,3.266161390372741,-1.7830495817380012
1787727008,518459497,-6.867124133962163e-14,-0.003990211898791882,-9.795622541672124,-2.2739498615264893,2.913325548171997,-0.005054080858826637,-1.7128023017315708,3.1821957360936945,-1.7878292582143827
1787727008,533395454,-6.800787592419994e-14,-0.003990206903511523,-9.795610278693513,-2.2739498615264893,2.913325548171997,-0.005054080858826637,-1.2250530799901513,3.2660358990057112,-2.1357264019451017
1787727008,567128064,-7.001746950304962e-14,-0.003990221852958415,-9.795646978284797,-2.2739498615264893,2.913325548171997,-0.005054080858826637,-1.843228194717439,3.1299215375922214,-2.1994441854964535
1787727008,592640458,-7.001746950304962e-14,-0.003990221852958415,-9.795646978284797,-1.8443939685821533,3.0649869441986084,-0.010716695338487625,-2.144427458305723,3.036174460112669,-1.785210358824974
1787727008,623209907,-7.278964065131498e-14,-0.003990241616238908,-9.795695495418704,-0.31168508529663086,3.42313289642334,-0.000767827033996582,-1.5449197431259767,3.2121873997273838,-1.7836673725769634
1787727008,659070925,-7.494054733473945e-14,-0.003990256312370989,-9.795731573144185,-0.31168508529663086,3.42313289642334,-0.000767827033996582,-1.5449445598916731,3.212079626018641,-2.136380470186389
1787727008,688601223,-7.790753573417312e-14,-0.003990275739748127,-9.795779265664617,-0.31168508529663086,3.42313289642334,-0.000767827033996582,-1.71289825356515,3.1822706411492185,-2.141032660787005
1787727008,700172609,-7.790753573417312e-14,-0.003990275739748127,-9.795779265664617,-0.31168508529663086,3.42313289642334,-0.000767827033996582,-2.144791364397147,3.036352542260801,-2.1402537440226186
1787727008,710666541,-7.790753573417312e-14,-0.003990275739748127,-9.795779265664617,-0.31168508529663086,3.42313289642334,-0.000767827033996582,-1.750799181740246,3.127468288075291,-1.783809457554973
1787727008,746123239,-8.178199460760181e-14,-0.003990299756545298,-9.79583822481193,-0.31168508529663086,3.42313289642334,-0.000767827033996582,-1.8888553816433349,3.1516355397095785,-1.789191371278961
1787727008,785654743,-8.584906080625838e-14,-0.003990323478446425,-9.795896460015168,-0.31168508529663086,3.42313289642334,-0.000767827033996582,-1.88901641347924,3.1517522119269663,-2.142788856204194
1787727008,820118990,-8.838575698294349e-14,-0.003990337571043125,-9.795931056113911,-2.2957324981689453,3.072502613067627,-0.00729784369468689,-1.998523519737755,3.0840333877142907,-1.7882104115671758
1787727008,843009551,-9.459990638828371e-14,-0.0039903700472597925,-9.796010782400273,-2.2957324981689453,3.072502613067627,-0.00729784369468689,-2.1804571892221913,3.001625995585784,-1.786326703742098
1787727008,845178761,-9.552264147827246e-14,-0.003990374640548572,-9.79602205852461,-1.6348177194595337,3.2886946201324463,-0.008396245539188385,-1.9986749463702198,3.084089651679507,-2.141561301386866
1787727008,893234397,-9.552264147827246e-14,-0.003990374640548572,-9.79602205852461,-1.6348177194595337,3.2886946201324463,-0.008396245539188385,-1.954892392329894,3.0786301969803347,-1.78883899323949
1787727008,914682384,-9.930430872173775e-14,-0.003990392899064408,-9.796066881592521,-1.6348177194595337,3.2886946201324463,-0.008396245539188385,-1.955086743164535,3.0787542388473206,-2.1423330826558633
1787727008,953938474,-1.0125087677158584e-13,-0.003990401959815532,-9.796089124948285,-1.6348177194595337,3.2886946201324463,-0.008396245539188385,-2.1805687287743263,3.00156751554237,-2.13976505708467
1787727008,951999576,-1.0223845586752568e-13,-0.0039904064731337415,-9.796100204751856,-1.6348177194595337,3.2886946201324463,-0.008396245539188385,-1.4882655045713467,3.176599183728553,-1.786753580331105
1787727008,985651982,-1.0525927843087412e-13,-0.00399041994509734,-9.796133277250533,-1.6348177194595337,3.2886946201324463,-0.008396245539188385,-1.4883298561867968,3.1766402176747355,-2.139905775907741
1787727009,41071192,-1.0942632337956302e-13,-0.003990437749813162,-9.796176986279077,-1.6348177194595337,3.2886946201324463,-0.008396245539188385,-1.7177271541816643,3.1470826554444704,-1.786976093498609
1787727009,59167409,-1.10493617410784e-13,-0.003990442172928311,-9.796187844642018,-1.6348177194595337,3.2886946201324463,-0.008396245539188385,-1.6521426561790347,3.1184823591595685,-1.784921745978072
1787727009,137813197,-1.1941526596211397e-13,-0.00399047715685425,-9.796273727137319,-2.258258104324341,2.914703607559204,-0.005654621869325638,-1.7178487108658185,3.1471794835215627,-2.1402570432789103
1787727009,149205774,-1.217560194630476e-13,-0.003990485792184478,-9.796294926121993,-2.258258104324341,2.914703607559204,-0.005654621869325638,-1.6521511736011723,3.118424289877881,-2.1381658123833676
1787727009,165130981,-1.2657596379990292e-13,-0.003990502931190903,-9.796337000892233,-2.258258104324341,2.914703607559204,-0.005654621869325638,-1.694460799718016,3.1876998118348014,-1.788305131121163
1787727009,201122806,-1.2657596379990292e-13,-0.003990502931190903,-9.796337000892233,-2.258258104324341,2.914703607559204,-0.005654621869325638,-1.6945287019184785,3.1877001531907827,-2.141387831733852
1787727009,235134730,-1.3813009984527506e-13,-0.003990540858051325,-9.7964301080366,-0.3160402178764343,3.4254162311553955,-0.0013206899166107178,-1.7293269776249336,3.1524293684135247,-1.7891408911562876
1787727009,253275850,-1.3813009984527506e-13,-0.003990540858051325,-9.7964301080366,-0.3160402178764343,3.4254162311553955,-0.0013206899166107178,-1.7294385649461808,3.152505937797184,-2.1423951839698194
1787727009,272150407,-1.3813009984527506e-13,-0.003990540858051325,-9.7964301080366,-0.3160402178764343,3.4254162311553955,-0.0013206899166107178,-1.7508146706307153,3.1273433277354603,-2.136489225958664
1787727009,290480336,-1.464128518261765e-13,-0.003990565659240531,-9.796490992799859,-0.3160402178764343,3.4254162311553955,-0.0013206899166107178,-1.7126422443945457,3.1016196146358195,-1.7865143122214882
1787727009,308395645,-1.4784083043058506e-13,-0.003990569755554349,-9.796501048894179,-1.5927040576934814,3.2950594425201416,-0.009132353588938713,-1.8796831694389433,3.0849333212965813,-1.788195583334864
1787727009,334008843,-1.4928274590802997e-13,-0.003990573841288732,-9.796511079016911,-1.5927040576934814,3.2950594425201416,-0.009132353588938713,-1.87980705224283,3.084987530850457,-2.141366938097077
1787727009,367765855,-1.551922867232976e-13,-0.003990590078838691,-9.796550940790615,-1.5927040576934814,3.2950594425201416,-0.009132353588938713,-1.7126622245963554,3.1015740181091127,-2.13982984178156
1787727009,382344394,-1.5369331338758105e-13,-0.0039905860352186465,-9.796541014054883,-1.5927040576934814,3.2950594425201416,-0.009132353588938713,-1.9901754938742902,3.0861240304591355,-1.7881156608697355
1787727009,387158238,-1.567058325317796e-13,-0.003990594111981023,-9.796560841804485,-1.5927040576934814,3.2950594425201416,-0.009132353588938713,-1.9903317863042542,3.086205841448039,-2.1413373945458964
1787727009,428840351,-1.6290921992823198e-13,-0.003990610140180391,-9.796600189640895,-1.5927040576934814,3.2950594425201416,-0.009132353588938713,-1.9155665807547573,3.111796173539442,-1.7848158586833431
1787727009,434238725,-1.6449804138079603e-13,-0.003990614121239558,-9.796609962795175,-1.5927040576934814,3.2950594425201416,-0.009132353588938713,-1.5148792034326637,3.1825061733929054,-1.7862727043421474
1787727009,482531773,-1.7436172404699094e-13,-0.003990637790841239,-9.796668069610538,-1.5927040576934814,3.2950594425201416,-0.009132353588938713,-1.8721073724674993,3.048038435206175,-1.7862288487461053
1787727009,507250726,-1.812638996350956e-13,-0.003990653365637832,-9.796706304383052,-1.5927040576934814,3.2950594425201416,-0.009132353588938713,-1.9156247290864095,3.1117108819265598,-2.137705024483467
1787727009,590243634,-2.0365331577379387e-13,-0.00399069912066333,-9.796818628996805,-1.78465735912323,3.0836658477783203,-0.011703087016940117,-1.8721444383553019,3.0479695964616385,-2.1394036037227986
1787727009,673940777,-2.1796980594260793e-13,-0.003990725149981285,-9.79688252871273,-1.78465735912323,3.0836658477783203,-0.011703087016940117,-2.017376661665265,3.055306373255428,-1.7848704884346973
1787727009,720406033,-2.2224207848784505e-13,-0.003990732498735296,-9.796900569266025,-1.78465735912323,3.0836658477783203,-0.011703087016940117,-2.0174447466349967,3.0552220059562645,-2.137781234157826
1787727009,887570507,-2.72483117732172e-13,-0.003990807343006472,-9.797084305460563,-2.23635196685791,3.0941851139068604,-0.007963128387928009,-1.968330133090652,3.0579042474434637,-1.7865180751429395
1787727010,9232475,-2.838963994699978e-13,-0.003990861604006906,-9.797217511517363,-1.7553664445877075,3.0912132263183594,-0.012362383306026459,-1.9683940043813903,3.0578186323867675,-2.139422465490348
1787727010,160193629,-2.785827250799616e-13,-0.003990913565475959,-9.797345072431183,-1.5119452476501465,3.3245019912719727,-0.009727207943797112,-2.050722699255652,3.0171154697214,-1.786328379024456
1787727010,291926207,-2.5102747028647354e-13,-0.00399095107609538,-9.797437157716828,-0.3348586857318878,3.440993309020996,-0.002478649839758873,-2.050787280817447,3.017024377632508,-2.1392377637625772
1787727010,296905960,-2.4888988678133635e-13,-0.003990954146698816,-9.797444695779307,-0.3348586857318878,3.440993309020996,-0.002478649839758873,-1.8642881078424836,3.0527525799364685,-1.7876784974497588
1787727010,361847052,-2.287709811600185e-13,-0.003990984393106655,-9.797518948076368,-1.7401796579360962,3.116415023803711,-0.012845547869801521,-2.1125456232577067,3.0373858091637937,-1.7867378521531188
1787727010,400060489,-2.2316389408263963e-13,-0.0039909933058211505,-9.79754082800775,-1.7401796579360962,3.116415023803711,-0.012845547869801521,-1.8644437242665952,3.0529336970417957,-2.143085927104546
1787727010,490056952,-1.994262864331032e-13,-0.003991033935072264,-9.797640569253527,-1.7401796579360962,3.116415023803711,-0.012845547869801521,-1.5149484563227549,3.1825371661442974,-2.1393184893993102
1787727010,510194773,-1.9483296797712648e-13,-0.003991042438100285,-9.797661443441532,-1.7401796579360962,3.116415023803711,-0.012845547869801521,-1.7872307655882242,3.121690779534557,-1.789510642268886
1787727010,551740379,-1.9333875310466377e-13,-0.003991045256727413,-9.797668362923943,-1.4724931716918945,3.34055757522583,-0.010143686085939407,-1.537688093531914,3.2159758753032848,-1.7925212422112984
1787727010,575489883,-1.904048716071557e-13,-0.003991050870520053,-9.797682144292612,-2.1963019371032715,3.1080362796783447,-0.008448135107755661,-1.5378012249144828,3.216107669065636,-2.146736545626363
1787727010,591897915,-1.8896487923357593e-13,-0.003991053665722715,-9.797689006270067,-2.1963019371032715,3.1080362796783447,-0.008448135107755661,-1.5409779614973977,3.2421718473518397,-1.7915521342495522
1787727010,602047130,-1.8475108111897597e-13,-0.003991062004778457,-9.797709477920844,-2.1963019371032715,3.1080362796783447,-0.008448135107755661,-2.1125782362888295,3.0372679012615906,-2.139542371250814
1787727010,596784063,-1.8475108111897597e-13,-0.003991062004778457,-9.797709477920844,-2.1963019371032715,3.1080362796783447,-0.008448135107755661,-1.7872545932272057,3.121638249244798,-2.1429147208011567
1787727010,627211505,-1.8069401542020371e-13,-0.003991070274393826,-9.797729779101726,-2.1963019371032715,3.1080362796783447,-0.008448135107755661,-1.5410169604645982,3.24212521775058,-2.144679460650332
1787727010,644836599,-1.7427091848906778e-13,-0.003991083904123544,-9.7977632388938,-2.1963019371032715,3.1080362796783447,-0.008448135107755661,-1.952595017210625,3.1140167384146005,-1.7876666221527766
1787727010,666113178,-1.7427091848906778e-13,-0.003991083904123544,-9.7977632388938,-2.2027859687805176,2.951160192489624,-0.00635039247572422,-1.1951523835418771,3.296976845568707,-1.7884271541851617
1787727010,689964587,-1.671037080643106e-13,-0.003991100010228014,-9.797802777969332,-2.2027859687805176,2.951160192489624,-0.00635039247572422,-1.1951685857389023,3.2970417684532,-2.1418429651152757
1787727010,695031044,-1.659649001160674e-13,-0.0039911026683638285,-9.797809303459942,-2.2027859687805176,2.951160192489624,-0.00635039247572422,-1.952610594014219,3.1138884556011805,-2.1404385454289514
1787727010,719271673,-1.648417247385071e-13,-0.003991105319057958,-9.79781581068188,-1.6945096254348755,3.1211955547332764,-0.013398557901382446,-1.4910445897716398,3.239385649669542,-1.7882885173406593
1787727010,733205779,-1.6373407741163016e-13,-0.0039911079623284555,-9.797822299679463,-1.6945096254348755,3.1211955547332764,-0.013398557901382446,-1.4910959217281525,3.239405518176826,-2.1414948865547516
1787727010,739071777,-1.615649523258131e-13,-0.003991113226670631,-9.797835223178508,-1.6945096254348755,3.1211955547332764,-0.013398557901382446,-1.7195217597670116,3.1744684699233354,-1.7896981356968178
1787727010,742865469,-1.605032719883596e-13,-0.00399111584777828,-9.797841657768275,-1.6945096254348755,3.1211955547332764,-0.013398557901382446,-1.4903491607797499,3.2049811472241543,-1.785966358441721
1787727010,787702842,-1.5740852199348866e-13,-0.003991123667062734,-9.797860853427006,-1.6945096254348755,3.1211955547332764,-0.013398557901382446,-1.4903607502635885,3.2048568571115505,-2.1387394297501787
1787727010,796066766,-1.5348933331650722e-13,-0.003991133990686078,-9.797886197018599,-1.6945096254348755,3.1211955547332764,-0.013398557901382446,-1.7029946481696432,3.150089082385754,-1.7876838127260135
1787727010,839578972,-1.4891499138978237e-13,-0.003991146732743766,-9.797917477655046,-1.6945096254348755,3.1211955547332764,-0.013398557901382446,-1.7021389692423985,3.1733496801022336,-1.786487972993137
1787727010,868655946,-1.4633940623466113e-13,-0.0039911542921756225,-9.79793603539878,-1.6945096254348755,3.1211955547332764,-0.013398557901382446,-1.719535158482056,3.1744283326122744,-2.143067044318177
1787727010,901066789,-1.4469139768290432e-13,-0.003991159296338797,-9.797948320181543,-1.6945096254348755,3.1211955547332764,-0.013398557901382446,-1.990400727914069,3.114447627861093,-1.8165879153229691
1787727010,911625325,-1.4309790946028914e-13,-0.003991164272298869,-9.7979605357282,-1.6945096254348755,3.1211955547332764,-0.013398557901382446,-1.7021540200026897,3.1732262287020134,-2.139257764799164
1787727010,984105999,-1.386385984008703e-13,-0.003991179032353363,-9.797996770370913,-0.3325749337673187,3.447822332382202,-0.002840481698513031,-1.7030945741752006,3.150149705925698,-2.14098673064493
1787727010,985920891,-1.3794153348989621e-13,-0.003991181468069864,-9.798002749841901,-0.3325749337673187,3.447822332382202,-0.002840481698513031,-1.8539608278548354,3.102680278173551,-1.7863326755687303
1787727011,18452941,-1.359278914492624e-13,-0.003991188733919919,-9.798020586868384,-0.3325749337673187,3.447822332382202,-0.002840481698513031,-1.8663837249856086,3.1516098701967636,-1.7895509665821867
1787727011,27315190,-1.3528233651161925e-13,-0.003991191142160692,-9.798026498888897,-0.3325749337673187,3.447822332382202,-0.002840481698513031,-1.7182306367181335,3.133857069797432,-1.790610148072647
1787727011,50621571,-1.3342201020248369e-13,-0.003991198325994859,-9.798044134573647,-1.4538209438323975,3.357144594192505,-0.010361183434724808,-1.7183226748446783,3.1338929820939065,-2.1440196794788435
1787727011,63969748,-1.3224467524694373e-13,-0.003991203081314674,-9.79805580846804,-1.4538209438323975,3.357144594192505,-0.010361183434724808,-1.8539841807585533,3.10256353586452,-2.1391194369494926
1787727011,97110328,-1.3057199838017035e-13,-0.003991210163779638,-9.798073195300379,-1.4538209438323975,3.357144594192505,-0.010361183434724808,-1.6597227688418195,3.188042721899227,-1.7903906132112184
1787727011,121757278,-1.290100679455507e-13,-0.003991217186032618,-9.79809043431763,-1.4538209438323975,3.357144594192505,-0.010361183434724808,-1.8664262524662512,3.151580857363908,-2.1430037718338637
1787727011,132165105,-1.2851375329731082e-13,-0.003991219513481757,-9.798096148001838,-1.4538209438323975,3.357144594192505,-0.010361183434724808,-1.659804113616815,3.1880832939723502,-2.143698431793705
1787727011,141371572,-1.2802956764506203e-13,-0.00399122183430794,-9.798101845427272,-1.4538209438323975,3.357144594192505,-0.010361183434724808,-1.9906962659166931,3.1143464213590417,-2.1703653153023788
1787727011,149989909,-1.2802956764506203e-13,-0.00399122183430794,-9.798101845427272,-1.6445329189300537,3.134363889694214,-0.013992147520184517,-1.8260080714499658,3.0992599925793733,-1.7880503364394964
1787727011,196604072,-1.2537618202386344e-13,-0.0039912356211182255,-9.798135690841692,-1.6445329189300537,3.134363889694214,-0.013992147520184517,-1.283425121431864,3.2600312995617977,-1.7885027567537892
1787727011,224392881,-1.2458663972978248e-13,-0.003991240164493387,-9.79814684443072,-1.6445329189300537,3.134363889694214,-0.013992147520184517,-1.8348979550879192,3.1343911308544206,-1.790675528035933
1787727011,247599158,-1.2349022106215582e-13,-0.003991246931046992,-9.79816345572862,-2.1706016063690186,2.940858840942383,-0.007124699652194977,-1.2834733812098482,3.2602356409775246,-2.1422806517761286
1787727011,263363157,-1.2314805854559813e-13,-0.003991249173694898,-9.798168961233303,-2.1706016063690186,2.940858840942383,-0.007124699652194977,-1.8349222346982368,3.134320826151302,-2.1438518815441676
1787727011,286839447,-1.224984797681448e-13,-0.003991253639784134,-9.798179925092214,-2.149254322052002,3.1032981872558594,-0.009007954970002174,-1.4132437548619774,3.219364744857209,-1.7901140465757752
1787727011,312409743,-1.2133768591409576e-13,-0.003991262495593223,-9.798201665329948,-2.149254322052002,3.1032981872558594,-0.009007954970002174,-1.4132782293434425,3.2193653592881604,-2.1432505128213957
1787727011,353115007,-1.2058713289773187e-13,-0.003991269071138554,-9.798217807719405,-2.149254322052002,3.1032981872558594,-0.009007954970002174,-1.430125818557637,3.2538017367765075,-1.7902180676489143
1787727011,431234268,-1.1923247254043522e-13,-0.003991284195673325,-9.79825493713144,-2.149254322052002,3.1032981872558594,-0.009007954970002174,-1.9233407969741727,3.107627530274753,-1.803798010851
1787727011,484259356,-1.188207034004152e-13,-0.003991290585054906,-9.798270622505319,-2.149254322052002,3.1032981872558594,-0.009007954970002174,-1.4301632611396609,3.253811235704153,-2.143326544929401
1787727011,526233084,-1.1850968127921316e-13,-0.003991296919518669,-9.798286173060795,-1.597665548324585,3.1445276737213135,-0.014695845544338226,-1.8260367225661254,3.0991499245347818,-2.14085524390748
1787727011,532292191,-1.183581764894247e-13,-0.003991301112194843,-9.798296465714769,-1.597665548324585,3.1445276737213135,-0.014695845544338226,-1.6479734152856493,3.212737395964151,-1.7906765533848403
1787727011,554836534,-1.182144373499877e-13,-0.003991307356073304,-9.798311793891314,-1.597665548324585,3.1445276737213135,-0.014695845544338226,-1.6480828368007812,3.2128498923939985,-2.144220772735604
1787727011,579178068,-1.1818885973551746e-13,-0.0039913094253923795,-9.798316873889007,-1.597665548324585,3.1445276737213135,-0.014695845544338226,-1.7257504985368661,3.1676845519725694,-1.788870349027425
1787727011,619083091,-1.1817098370661926e-13,-0.003991313546163257,-9.79832699002181,-1.412453532218933,3.3497040271759033,-0.010968977585434914,-1.7257656779976809,3.167561928644217,-2.1416718022127696
1787727011,621560017,-1.1817098370661926e-13,-0.003991313546163257,-9.79832699002181,-1.412453532218933,3.3497040271759033,-0.010968977585434914,-1.9234940803204161,3.107506288520742,-2.157080606796083
1787727011,626063945,-1.1817878765602317e-13,-0.003991315597646067,-9.798332026233044,-1.412453532218933,3.3497040271759033,-0.010968977585434914,-1.8057419201874876,3.1385259431691455,-1.7897947740003954
1787727011,650456782,-1.1819770175838802e-13,-0.003991317643214414,-9.798337047924793,-1.412453532218933,3.3497040271759033,-0.010968977585434914,-1.8058661555602211,3.138596386582636,-2.1432089978365303
1787727011,668755309,-1.182277280076321e-13,-0.003991319682883727,-9.798342055134933,-1.412453532218933,3.3497040271759033,-0.010968977585434914,-1.8611929436300165,3.10603781948823,-1.7881265843288912
1787727011,715840796,-1.184592801058736e-13,-0.003991327782878168,-9.798361939914354,-1.412453532218933,3.3497040271759033,-0.010968977585434914,-1.7742860570131107,3.1336433797852696,-1.7910381051720803
1787727011,728077217,-1.185450838650879e-13,-0.003991329793282692,-9.798366875282014,-1.412453532218933,3.3497040271759033,-0.010968977585434914,-1.8612087576281315,3.105912755583383,-2.140913848463584
1787727011,782590080,-1.189998871623633e-13,-0.0039913377769818965,-9.79838647456687,-2.1423821449279785,2.9760613441467285,-0.007466301321983337,-1.7744030980400176,3.133709167754024,-2.144392379347045
1787727011,788941602,-1.1929454731205248e-13,-0.003991341734292472,-9.79839618941903,-2.1423821449279785,2.9760613441467285,-0.007466301321983337,-1.8139012824768699,3.1101649356995966,-1.7896195646101147
1787727011,808231480,-1.196341195551186e-13,-0.003991345668738068,-9.798405848139677,-2.1423821449279785,2.9760613441467285,-0.007466301321983337,-1.3648964783821804,3.2230589435710257,-1.7892582092599323
1787727011,841113847,-1.2001878286047676e-13,-0.0039913495804388575,-9.798415451023827,-2.1423821449279785,2.9760613441467285,-0.007466301321983337,-1.8139207548741778,3.1100450636711203,-2.1424149909263996
1787727011,843858287,-1.2044862829849068e-13,-0.003991353469514532,-9.798424998365308,-2.1423821449279785,2.9760613441467285,-0.007466301321983337,-1.3649209851279773,3.223025401925873,-2.142300289522653
1787727011,897521807,-1.2068052406946924e-13,-0.003991355405605221,-9.798429751299045,-2.1423821449279785,2.9760613441467285,-0.007466301321983337,-1.3901967970907898,3.2611288645651553,-1.7896311796301543
1787727011,909395809,-1.214446796231146e-13,-0.003991361180266877,-9.79844392758965,-2.1423821449279785,2.9760613441467285,-0.007466301321983337,-1.3934247681852265,3.20584073865553,-1.7877021971190963
1787727011,941030613,-1.2231173640343612e-13,-0.003991366904823296,-9.798457980876307,-2.124891757965088,3.0969231128692627,-0.009450657293200493,-1.408865791546792,3.221350813344949,-1.7883646968655977
1787727011,963399647,-1.2398774800789301e-13,-0.003991376335482923,-9.79848113232314,-2.124891757965088,3.0969231128692627,-0.009450657293200493,-1.3934398965211374,3.2057243244509195,-2.140498448000381
1787727011,968016181,-1.243578219005566e-13,-0.003991378205206079,-9.798485722330419,-2.124891757965088,3.0969231128692627,-0.009450657293200493,-2.0032721477701654,3.062798964505563,-1.7957191816117692
1787727012,48104341,-1.255385233194341e-13,-0.003991383781819158,-9.798499412429193,-2.124891757965088,3.0969231128692627,-0.009450657293200493,-1.3902606507072905,3.261259282172165,-2.1430616685533073
1787727012,57112898,-1.2727856287537555e-13,-0.00399139114187636,-9.798517480727805,-2.124891757965088,3.0969231128692627,-0.009450657293200493,-1.4087711184232894,3.221626540879416,-2.1437230985805638
1787727012,76390975,-1.2727856287537555e-13,-0.00399139114187636,-9.798517480727805,-1.4060670137405396,3.3361012935638428,-0.01199280098080635,-1.410591874394037,3.24862589690734,-1.7884822044661095
1787727012,68300165,-1.2774340989930858e-13,-0.003991392968517187,-9.79852196497176,-1.4060670137405396,3.3361012935638428,-0.01199280098080635,-1.4626298796801451,3.2255599201042746,-1.7921401916208337
1787727012,115607264,-1.2921041965142603e-13,-0.0039913984165715006,-9.798535339470066,-1.4060670137405396,3.3361012935638428,-0.01199280098080635,-1.462677709451729,3.2255745442578965,-2.1453986988076004
1787727012,117965083,-1.2921041965142603e-13,-0.0039913984165715006,-9.798535339470066,-1.4060670137405396,3.3361012935638428,-0.01199280098080635,-1.421561905258283,3.26009505405973,-1.7903625646861123
1787727012,159722000,-1.318994975011911e-13,-0.0039914073912845245,-9.798557371608085,-1.4060670137405396,3.3361012935638428,-0.01199280098080635,-1.6638319676879185,3.1446851425156224,-1.7908022347166743
1787727012,175290889,-1.318994975011911e-13,-0.0039914073912845245,-9.798557371608085,-1.4060670137405396,3.3361012935638428,-0.01199280098080635,-1.421551836857016,3.2600040331115374,-2.143422127322995
1787727012,188979783,-1.318994975011911e-13,-0.0039914073912845245,-9.798557371608085,-1.4060670137405396,3.3361012935638428,-0.01199280098080635,-1.663932139269101,3.144749704535812,-2.144194943588374
1787727012,221708243,-1.33661658271453e-13,-0.00399141271350502,-9.798570437195435,-0.34910139441490173,3.444800615310669,-0.004162406548857689,-1.484889780279902,3.224247223216976,-1.7912659296116358
1787727012,225146717,-1.33661658271453e-13,-0.00399141271350502,-9.798570437195435,-0.34910139441490173,3.444800615310669,-0.004162406548857689,-1.801823400513444,3.1329396249549832,-1.790462013377793
1787727012,236786207,-1.348992558721203e-13,-0.003991416235798548,-9.798579084119007,-0.34910139441490173,3.444800615310669,-0.004162406548857689,-1.8019107675160364,3.1329452736084167,-2.1436247811839624
1787727012,261886280,-1.355370633132091e-13,-0.003991417989230949,-9.798583388642712,-0.34910139441490173,3.444800615310669,-0.004162406548857689,-1.4848849656403054,3.2241459745797956,-2.144228781926478
1787727012,274661527,-1.3685104420671696e-13,-0.003991421480736188,-9.798591959983742,-0.34910139441490173,3.444800615310669,-0.004162406548857689,-1.38839575280991,3.2221091731999776,-1.7886397651132377
1787727012,298721447,-1.3685104420671696e-13,-0.003991421480736188,-9.798591959983742,-0.34910139441490173,3.444800615310669,-0.004162406548857689,-1.3884370191069673,3.22210282906656,-2.14170905557884
1787727012,299039863,-1.3752739254695792e-13,-0.003991423218836602,-9.798596226868765,-0.34910139441490173,3.444800615310669,-0.004162406548857689,-2.003483373816206,3.062676882118212,-2.1491143812612914
1787727012,324546356,-1.3821666096161434e-13,-0.003991424951853878,-9.798600481275136,-0.34910139441490173,3.444800615310669,-0.004162406548857689,-1.6796266432566838,3.143617141810617,-1.7900056166206824
1787727012,336023138,-1.3821666096161434e-13,-0.003991424951853878,-9.798600481275136,-0.34910139441490173,3.444800615310669,-0.004162406548857689,-1.4478824063019429,3.200061976995787,-1.7904863493685896
1787727012,367299124,-1.4110460591576535e-13,-0.003991431833365439,-9.79861737478628,-2.134969711303711,2.994225263595581,-0.007591504603624344,-1.679631498536069,3.143515976664649,-2.1429487567075993
1787727012,399715667,-1.4185962215910736e-13,-0.0039914335411721374,-9.798621567302895,-2.134969711303711,2.994225263595581,-0.007591504603624344,-1.4479185904068308,3.2000254098787817,-2.1434645474192475
1787727012,421788486,-1.4340985873807548e-13,-0.003991436941795155,-9.798629915536063,-1.482858657836914,3.1709840297698975,-0.01562296412885189,-1.8129862978221265,3.132018335972417,-1.7897138486678708
1787727012,428468925,-1.4420522439784962e-13,-0.003991438634638515,-9.798634071319,-1.482858657836914,3.1709840297698975,-0.01562296412885189,-1.437912877768441,3.2426258559206063,-1.790929407530776
1787727012,443137469,-1.4752315774755248e-13,-0.003991445356538374,-9.798650572997452,-1.3856151103973389,3.3376305103302,-0.012411030009388924,-1.4379594909605093,3.2426260482980376,-2.143994321815569
1787727012,474596864,-1.4752315774755248e-13,-0.003991445356538374,-9.798650572997452,-1.3856151103973389,3.3376305103302,-0.012411030009388924,-1.8129975007563481,3.1319186741150786,-2.1426368154248294
1787727012,484410761,-1.49265176458976e-13,-0.003991448687991668,-9.798658751425032,-1.3856151103973389,3.3376305103302,-0.012411030009388924,-1.6380084548747664,3.1668881492781953,-1.7900270175627213
1787727012,518871908,-1.5106342512227033e-13,-0.003991451999922693,-9.79866688192716,-2.0780186653137207,3.098956823348999,-0.009943898767232895,-1.6380985933853391,3.166948182626864,-2.1432124130614207
1787727012,557177250,-1.5483143022196566e-13,-0.0039914585656415785,-9.79868300019506,-2.0780186653137207,3.098956823348999,-0.009943898767232895,-1.6111041935815844,3.165996683216702,-1.791722810658523
1787727012,577789595,-1.5483143022196566e-13,-0.0039914585656415785,-9.79868300019506,-2.0780186653137207,3.098956823348999,-0.009943898767232895,-1.6111868247316967,3.166045722431974,-2.144875674047301
1787727012,622474961,-1.5680254463021494e-13,-0.003991461819640078,-9.798690988477933,-2.0780186653137207,3.098956823348999,-0.009943898767232895,-1.7570975760645484,3.146405275815175,-1.7913062969340583
1787727012,628430263,-1.588327617395377e-13,-0.003991465054537589,-9.79869892986956,-2.0780186653137207,3.098956823348999,-0.009943898767232895,-1.410613121282126,3.248520739656354,-2.141302076779081
1787727012,632902889,-1.588327617395377e-13,-0.003991465054537589,-9.79869892986956,-2.0780186653137207,3.098956823348999,-0.009943898767232895,-2.0512093226806085,3.0279023672202605,-1.7920319162844713
1787727012,647968353,-1.630735157661334e-13,-0.003991471467445758,-9.798714673000596,-2.0780186653137207,3.098956823348999,-0.009943898767232895,-1.757165337138364,3.14639432674985,-2.144331394582492
1787727012,666952516,-1.641718449913424e-13,-0.003991473058896842,-9.798718579874413,-2.0780186653137207,3.098956823348999,-0.009943898767232895,-1.6575048510075536,3.200218328366513,-1.7916029371075692
1787727012,708653330,-1.6756003998446334e-13,-0.003991477805193625,-9.798730231619702,-2.0780186653137207,3.098956823348999,-0.009943898767232895,-1.4112165853233514,3.2772923455713876,-1.789540415641133
1787727012,734635647,-1.7352415108120905e-13,-0.003991485622932888,-9.798749423488905,-2.0780186653137207,3.098956823348999,-0.009943898767232895,-1.7518655699424113,3.1354237192987076,-1.791167199478136
1787727012,785293415,-1.772978491260459e-13,-0.003991490258481259,-9.798760803356599,-0.35172390937805176,3.445319652557373,-0.004752172157168388,-1.7519063747115928,3.1354859403008493,-2.144804891472218
1787727012,793371725,-1.7602338102245664e-13,-0.003991488717860311,-9.798757021266287,-0.35172390937805176,3.445319652557373,-0.004752172157168388,-1.6575400155976852,3.2001527436900856,-2.1444949514794804
1787727012,829719267,-1.8256381283378016e-13,-0.003991496375638858,-9.798775820446021,-0.35172390937805176,3.445319652557373,-0.004752172157168388,-1.2860946847643497,3.2699166240688307,-1.7901395847069486
1787727012,838814429,-1.839230206868378e-13,-0.0039914978936590375,-9.798779547053433,-0.35172390937805176,3.445319652557373,-0.004752172157168388,-1.862798438849967,3.0901384527994002,-1.7905842191969867
1787727012,847622875,-1.8810493204215117e-13,-0.003991502420871869,-9.798790660966914,-0.35172390937805176,3.445319652557373,-0.004752172157168388,-1.2861279532268768,3.2699336050753844,-2.1432698704072224
1787727012,859975901,-1.8953416867395362e-13,-0.003991503921034697,-9.798794343736105,-1.3552916049957275,3.3428683280944824,-0.012922832742333412,-1.4112358565728025,3.277184449242069,-2.1424104559560706
1787727012,878128622,-1.9098129485127865e-13,-0.0039915054167639595,-9.798798015621282,-1.3552916049957275,3.3428683280944824,-0.012922832742333412,-1.8628113225278022,3.0900323674978525,-2.1435088473123782
1787727012,892910671,-1.9244639427106963e-13,-0.003991506908071904,-9.798801676652513,-1.3552916049957275,3.3428683280944824,-0.012922832742333412,-1.5271952509689835,3.191595143283276,-1.7895141324092179
1787727012,909665020,-1.9392955161027352e-13,-0.003991508394970756,-9.798805326859808,-1.3552916049957275,3.3428683280944824,-0.012922832742333412,-1.527259682091331,3.1916346217570135,-2.1426782841650023
1787727012,925420319,-1.9543106160855766e-13,-0.003991509877472706,-9.7988089662731,-1.4072039127349854,3.1781280040740967,-0.015837494283914566,-1.7719941744600358,3.1108787042918244,-1.7919325127637846
1787727012,930426773,-1.9695096113872017e-13,-0.003991511355589923,-9.798812594922255,-1.4072039127349854,3.1781280040740967,-0.015837494283914566,-2.051403847017556,3.027772659968973,-2.1453611793507683
1787727012,952779006,-1.98489392569451e-13,-0.003991512829334539,-9.798816212837066,-2.1173460483551025,3.0011794567108154,-0.00806937925517559,-1.5146778069366265,3.1857434110362073,-1.7914373516817004
1787727012,967464551,-1.98489392569451e-13,-0.003991512829334539,-9.798816212837066,-2.1173460483551025,3.0011794567108154,-0.00806937925517559,-1.772002693721695,3.110769645183008,-2.1448168206481624
1787727012,967882372,-1.98489392569451e-13,-0.003991512829334539,-9.798816212837066,-2.1173460483551025,3.0011794567108154,-0.00806937925517559,-1.514729569721032,3.185749288904452,-2.1445100220418656
1787727012,980138393,-2.0483154448806e-13,-0.003991518680828772,-9.798830577746342,-2.1173460483551025,3.0011794567108154,-0.00806937925517559,-1.6188406422698995,3.191633696042356,-1.789046229312973
1787727012,991441966,-2.0483154448806e-13,-0.003991518680828772,-9.798830577746342,-2.1173460483551025,3.0011794567108154,-0.00806937925517559,-1.4780907257431206,3.228841736219723,-1.79184797964763
1787727013,18983363,-2.064649311995011e-13,-0.003991520132891459,-9.798834142433927,-2.1173460483551025,3.0011794567108154,-0.00806937925517559,-1.6681144490179012,3.1746648452663435,-1.7919787620642473
1787727013,21961414,-2.0483154448806e-13,-0.003991518680828772,-9.798830577746342,-2.1173460483551025,3.0011794567108154,-0.00806937925517559,-1.478114637211181,3.228772619432058,-2.144742574315449
1787727013,34033726,-2.064649311995011e-13,-0.003991520132891459,-9.798834142433927,-2.1173460483551025,3.0011794567108154,-0.00806937925517559,-1.6484781214333952,3.191905543098855,-1.7913962199508044
1787727013,53826529,-2.0979017550467134e-13,-0.003991523024127655,-9.798841240167302,-2.1173460483551025,3.0011794567108154,-0.00806937925517559,-1.6188763908850403,3.1915365800884556,-2.141963241735104
1787727013,60889587,-2.114823435918491e-13,-0.003991524463325013,-9.79884477327164,-2.1173460483551025,3.0011794567108154,-0.00806937925517559,-1.6681210657826324,3.1745653648736005,-2.144872389686529
1787727013,166432638,-2.1667909566256035e-13,-0.003991528755376634,-9.798855309885095,-2.046466827392578,3.1029913425445557,-0.010394886136054993,-1.293655795037932,3.251203108549512,-1.7898091148167654
1787727013,222183764,-2.3734056641035225e-13,-0.00399154416965627,-9.798893150601494,-2.046466827392578,3.1029913425445557,-0.010394886136054993,-1.5584771826509016,3.232499388982099,-1.7899587352331134
1787727013,244390790,-2.3734056641035225e-13,-0.00399154416965627,-9.798893150601494,-2.046466827392578,3.1029913425445557,-0.010394886136054993,-1.293645006624707,3.2511550416166206,-2.1428387362287964
1787727013,258619312,-2.476119063035605e-13,-0.003991551011171572,-9.798909945927013,-2.046466827392578,3.1029913425445557,-0.010394886136054993,-1.6485060995106207,3.191831170059793,-2.1442719643179697
1787727013,292287719,-2.518823124829033e-13,-0.003991553719388799,-9.798916594365004,-2.046466827392578,3.1029913425445557,-0.010394886136054993,-1.2803251380047391,3.2644167457999096,-1.7908948122526736
1787727013,330673465,-2.6297708649599725e-13,-0.003991560419751579,-9.798933043173582,-2.046466827392578,3.1029913425445557,-0.010394886136054993,-1.5585215478803691,3.2324197352388633,-2.1429234165707705
1787727013,333873127,-2.6758689155857974e-13,-0.0039915630720601504,-9.798939554360777,-2.046466827392578,3.1029913425445557,-0.010394886136054993,-1.2803343876387898,3.2643691026570143,-2.1439303768484104
1787727013,393064428,-2.7955639749118176e-13,-0.003991569634018824,-9.798955663399553,-2.046466827392578,3.1029913425445557,-0.010394886136054993,-1.3016434377693744,3.286729851049264,-1.7916529312357552
1787727013,396864220,-2.7955639749118176e-13,-0.003991569634018824,-9.798955663399553,-0.36746659874916077,3.4453237056732178,-0.005282660946249962,-2.072437968482472,3.04734603574899,-1.7907951854028266
1787727013,418288406,-2.8705219787577346e-13,-0.003991573524448994,-9.798965214067916,-1.3090895414352417,3.345705509185791,-0.013609085232019424,-1.3016659424102817,3.286791810076414,-2.144964034740244
1787727013,478793874,-2.788846500827296e-13,-0.003991581201508166,-9.798984060582002,-1.3462342023849487,3.1965582370758057,-0.01613554172217846,-1.215183181342401,3.2926509268996025,-1.788464650196262
1787727013,502500876,-2.817504675964992e-13,-0.00399158498872039,-9.798993357859487,-1.3462342023849487,3.1965582370758057,-0.01613554172217846,-1.3316613451741515,3.2559718212320434,-1.7931894969467783
1787727013,530230682,-2.8218218677490987e-13,-0.003991588742106265,-9.799002572096304,-1.3462342023849487,3.1965582370758057,-0.01613554172217846,-1.3316954914161163,3.2560865235630816,-2.1466572195410443
1787727013,569988797,-2.801802751347597e-13,-0.003991592461952041,-9.799011703995172,-1.3462342023849487,3.1965582370758057,-0.01613554172217846,-1.2152049309598116,3.2925643498269053,-2.141406126544399
1787727013,573848793,-2.801802751347597e-13,-0.003991592461952041,-9.799011703995172,-1.3462342023849487,3.1965582370758057,-0.01613554172217846,-1.554893923712766,3.1837248577507182,-1.7922012700518866
1787727013,603696006,-2.7574305046327944e-13,-0.00399159614854184,-9.799020754253586,-1.3462342023849487,3.1965582370758057,-0.01613554172217846,-1.532503886150137,3.1781560949304826,-1.7893931346345013
1787727013,606907769,-2.714300736580934e-13,-0.003991598587932178,-9.799026742745474,-1.3462342023849487,3.1965582370758057,-0.01613554172217846,-1.5549207930278215,3.183669911703098,-2.1452070043028124
1787727013,660690496,-2.7978935351232595e-13,-0.003991604622836057,-9.799041557911712,-1.3462342023849487,3.1965582370758057,-0.01613554172217846,-1.532524221571698,3.1782801578082256,-2.1432984512298447
1787727013,668298181,-2.7978935351232595e-13,-0.003991604622836057,-9.799041557911712,-1.3462342023849487,3.1965582370758057,-0.01613554172217846,-1.6945640241711388,3.160768154056232,-1.7918030499132644
1787727013,709118951,-2.7022230866476407e-13,-0.003991609386049076,-9.799053251187244,-2.0968289375305176,3.023533821105957,-0.008451305329799652,-2.072727409433293,3.0472269635768283,-2.144422840949165
1787727013,718790441,-2.678947379019684e-13,-0.003991610567949808,-9.799056152651236,-2.0968289375305176,3.023533821105957,-0.008451305329799652,-1.2635946854450917,3.305281688101693,-1.7896842989983226
1787727013,736338131,-2.678947379019684e-13,-0.003991610567949808,-9.799056152651236,-2.0968289375305176,3.023533821105957,-0.008451305329799652,-1.4908052428796255,3.223464518413617,-1.7909058834286307
1787727013,781249008,-2.5663097913528424e-13,-0.003991616424543491,-9.799070530081945,-1.9917460680007935,3.1056132316589355,-0.010987184941768646,-1.4908067425574012,3.223382069454472,-2.1439371531595954
1787727013,856317514,-2.4805634545592003e-13,-0.0039916210469272935,-9.799081877634414,-1.9917460680007935,3.1056132316589355,-0.010987184941768646,-1.6575517444887002,3.1879768454360256,-1.790704886355535
1787727013,850146501,-2.459715693811666e-13,-0.003991622193871233,-9.799084693282623,-1.9917460680007935,3.1056132316589355,-0.010987184941768646,-1.6946505899396023,3.160841355598849,-2.1451382069947615
1787727013,912371155,-2.358914693704828e-13,-0.003991627877171361,-9.79909864529328,-1.2714979648590088,3.1901614665985107,-0.01675306260585785,-1.3176447733589884,3.242145722524294,-1.791613819367201
1787727013,928062051,-2.3394286398226085e-13,-0.003991629003615943,-9.799101410617416,-1.2714979648590088,3.1901614665985107,-0.01675306260585785,-1.6575643394530963,3.187896880875023,-2.143725506804219
1787727013,941157915,-2.320163032946796e-13,-0.0039916301266780824,-9.799104167637967,-1.2714979648590088,3.1901614665985107,-0.01675306260585785,-1.3176492954092083,3.2421835704565445,-2.14501223802637
1787727013,985928885,-2.2270757030157603e-13,-0.003991635691590149,-9.799117829016653,-1.2714979648590088,3.1901614665985107,-0.01675306260585785,-1.571743336208355,3.231832370589579,-1.7914618671565883
1787727013,989137748,-2.2270757030157603e-13,-0.003991635691590149,-9.799117829016653,-1.2714979648590088,3.1901614665985107,-0.01675306260585785,-1.3152193827805734,3.271582178465828,-1.7922822773563567
1787727014,2307817,-2.2270757030157603e-13,-0.003991635691590149,-9.799117829016653,-0.3742329776287079,3.4326515197753906,-0.00599866546690464,-1.3152240826709123,3.271647687804635,-2.145675446334776
1787727014,56594576,-2.0725968455638112e-13,-0.0039916454997685905,-9.799141907248913,-1.2056928873062134,3.3286240100860596,-0.014464210718870163,-1.5717493620559717,3.231742913209244,-2.144419599367814
1787727014,70648090,-2.0725968455638112e-13,-0.0039916454997685905,-9.799141907248913,-1.2056928873062134,3.3286240100860596,-0.014464210718870163,-1.324035937245303,3.2503196042428346,-1.793619126149522
1787727014,97375248,-2.0246747552256512e-13,-0.003991648710507082,-9.799149789335328,-1.2056928873062134,3.3286240100860596,-0.014464210718870163,-1.3240416110633308,3.2503707505748376,-2.1469293233752182
1787727014,139953112,-1.933940207012428e-13,-0.003991655045510695,-9.799165341223963,-1.2056928873062134,3.3286240100860596,-0.014464210718870163,-1.5435464975159308,3.185918545712488,-1.7923377790313206
1787727014,140677649,-1.9194633788689403e-13,-0.003991656090242399,-9.79916790595044,-1.2056928873062134,3.3286240100860596,-0.014464210718870163,-1.726663110019033,3.1662142185262847,-1.7906079370050594
1787727014,156377147,-1.9051677131945644e-13,-0.003991657131826381,-9.799170462949556,-1.2056928873062134,3.3286240100860596,-0.014464210718870163,-1.5435770533258741,3.1859456164341227,-2.145555594940919
1787727014,181756937,-1.9051677131945644e-13,-0.003991657131826381,-9.799170462949556,-1.2056928873062134,3.3286240100860596,-0.014464210718870163,-1.7266796802498707,3.166135372057927,-2.143603976439048
1787727014,194385878,-1.8910508295139125e-13,-0.00399165817027172,-9.799173012243589,-1.2056928873062134,3.3286240100860596,-0.014464210718870163,-1.6708681562407837,3.1630876968907318,-1.7920922424980053
1787727014,316767698,-1.7232825960695496e-13,-0.003991671388531454,-9.799205461936763,-1.2056928873062134,3.3286240100860596,-0.014464210718870163,-1.6709062249450135,3.1630906070146603,-2.145210689060497
1787727014,353875383,-1.6772998430377333e-13,-0.003991675352311161,-9.799215192676504,-1.9899698495864868,3.0345356464385986,-0.008897360414266586,-1.5575320391934986,3.17101649323193,-1.7941992647331495
